Accelerometerx,Accelerometery,Accelerometerz,Gyroscopex,Gyroscopey,Gyroscopez,Orientationa,Orientationb,Orientationc,Orientationd,AccMagnitude,GyroMagnitude,Roll,Pitch,Yaw,Activity,time,hrm
-10.53720284,-2.142875671,-0.015562057,0.971549988,-1.252788544,-0.758490562,-0.848999023,0.301879883,-0.429931641,-0.057189941,10.75289738,1.757468762,1.918656444,-0.596520108,0.731089816,Mers,7/26/2024 8:26,107
0.531528473,-9.629772186,-1.923799515,0.041545868,-0.373918533,-0.071374893,-0.534362793,0.840270996,-0.0234375,0.088256836,9.834431323,0.382930155,-1.883751603,-1.10593128,1.396281915,Mers,7/26/2024 8:26,107
-1.076226234,0.70990181,9.91349411,-4.047062874,0.252474785,1.376362801,-0.857055664,0.451416016,-0.20098877,0.145874023,9.996978991,4.282153195,2.271416865,-0.79682327,1.073170012,Mers,7/26/2024 8:26,107
-9.040781021,-2.104566574,-1.992035866,-1.224025726,-1.198458672,-1.114299774,-0.702880859,0.328613281,-0.582275391,-0.242675781,9.493846893,2.043576804,1.944510607,-0.839875838,0.300360557,Mers,7/26/2024 8:26,107
-10.94303226,-3.207130432,1.703525543,2.061348915,0.657287598,0.59230423,-0.861694336,0.098815918,-0.47644043,0.143920898,11.52985863,2.243214354,2.147144217,-0.033164844,0.535959998,Mers,7/26/2024 8:26,107
-11.29259586,-1.610149384,-0.470474243,1.380624771,-1.603271484,-0.58484745,-0.733520508,-0.118652344,-0.467041016,0.479309082,11.41650771,2.195142535,2.406462637,0.67101578,0.180489262,Mers,7/26/2024 8:26,107
-7.694001198,-2.169212341,2.166817665,-0.004261017,0.688180923,0.671136856,-0.776062012,-0.088806152,-0.608154297,0.141662598,8.282405171,0.961267818,1.999844941,0.315344074,0.235190258,Mers,7/26/2024 8:26,107
-10.92387772,-1.731060028,1.909433365,-0.027697563,0.515603065,0.283368111,-0.743835449,-0.089050293,-0.64453125,0.152770996,11.22379655,0.588991648,2.203809324,0.335677457,0.130718229,Mers,7/26/2024 8:26,107
-10.87599277,-2.498425484,0.219075203,0.011717796,1.08127594,0.336633682,-0.773925781,-0.039428711,-0.594909668,0.213562012,11.16142207,1.13252691,2.346754524,0.320593634,0.218732868,Mers,7/26/2024 8:26,107
-7.750267029,-2.353571892,-1.228262901,-0.413334846,-0.919350624,-0.975811958,-0.750061035,-0.125061035,-0.544006348,0.354736328,8.192348224,1.402946985,2.381090114,0.610850602,0.211853067,Mers,7/26/2024 8:26,106
-9.618998528,-0.962497711,-0.897852898,0.643439293,1.776914597,0.788319588,-0.582397461,-0.392578125,-0.527709961,0.477722168,9.708639161,2.047654117,2.382565241,1.292302181,-0.055840274,Mers,7/26/2024 8:26,106
-13.1697073,-1.242628098,0.695536613,-0.720140457,0.745707512,0.504950523,-0.606506348,-0.367431641,-0.610351563,0.353088379,13.24647448,1.153107541,-0.64038894,1.06899042,0.011642684,Mers,7/26/2024 8:26,106
-11.86482811,-1.723876953,2.53314209,0.445293427,-0.045806885,0.192818642,-0.561523438,-0.473205566,-0.506774902,0.451599121,12.25408939,0.487404899,2.191758025,1.423355197,0.5056633,Mers,7/26/2024 8:26,107
-8.103422165,-2.510396957,1.940559387,-0.935330391,0.272715569,0.508146286,-0.63671875,-0.351501465,-0.612731934,0.309204102,8.702488977,1.098830911,0.054340529,0.972921302,0.102507351,Mers,7/26/2024 8:26,107
-7.682029724,-2.542718887,-1.382693291,0.25886631,-0.841584206,-0.5720644,-0.612854004,-0.253234863,-0.477722168,0.57623291,8.209192455,1.050015914,2.411879802,1.037135198,-0.389409933,Mers,7/26/2024 8:26,106
-7.814911842,-1.150448799,-0.016759872,-0.876738548,-0.732923508,-0.35793972,-0.542053223,-0.273193359,-0.536743164,0.58605957,7.899155678,1.19748411,2.465286812,1.181819613,-0.788154553,Mers,7/26/2024 8:26,112
-6.456161499,-2.388288498,2.025555611,-0.406943321,0.464468956,0.812821388,-0.522521973,-0.463439941,-0.550964355,0.456726074,7.175570973,1.020790324,-0.832435242,1.413119089,-0.158198406,Mers,7/26/2024 8:26,108
-7.54675293,-1.632894516,-1.075028419,0.148076057,1.422170639,0.931069374,-0.5078125,-0.415039063,-0.534423828,0.533081055,7.795864954,1.706278413,2.43036933,1.43884072,-0.947783948,Mers,7/26/2024 8:26,111
-12.38558292,-0.550683022,0.82722187,-1.181413651,0.128900528,-0.090549469,-0.533996582,-0.375671387,-0.577514648,0.490112305,12.42538579,1.191869442,2.626341554,1.314393724,-0.535502509,Mers,7/26/2024 8:26,110
-9.915887833,-3.252621651,1.661625862,2.002758026,0.99392128,1.047186852,-0.46295166,-0.549377441,-0.489135742,0.494567871,10.56718409,2.468910595,-0.801606643,1.448180079,2.798858878,Mers,7/26/2024 8:27,107
-12.101861,-1.671203613,0.144853592,-0.101202965,2.149768829,2.336195946,-0.545837402,-0.41204834,-0.611206055,0.39831543,12.21756701,3.176406705,-0.899642884,1.21316436,-0.187899632,Mers,7/26/2024 8:27,112
-12.27544594,-1.921404839,1.345582008,-1.07381916,-1.576639175,-1.294335365,-0.535339355,-0.260131836,-0.521606445,0.611328125,12.49755818,2.305251117,2.444987918,1.158649584,-0.88128457,Mers,7/26/2024 8:27,112
-10.47974014,-0.526740074,1.319245338,-1.334816933,0.847975731,0.630655289,-0.489135742,-0.465942383,-0.614257813,0.407775879,10.57557643,1.702505559,-0.82767656,1.275710501,-0.375906263,Mers,7/26/2024 8:27,112
-8.17764473,-1.95731926,1.370721817,-0.743577003,-0.062851906,-0.520929337,-0.556152344,-0.320251465,-0.62310791,0.447143555,8.51961562,0.910068402,2.956954695,1.151693926,-0.409259106,Mers,7/26/2024 8:27,112
-11.34287548,-3.379518509,2.342797279,1.183544159,-1.017357826,-0.32171917,-0.475402832,-0.421203613,-0.479064941,0.605895996,12.06526703,1.593517162,2.318166012,1.375601191,-1.847688612,Mers,7/26/2024 8:27,112
-7.855614662,-1.047494888,-1.498815536,0.46553421,0.700964928,-0.223711967,-0.541442871,-0.417724609,-0.575561523,0.448486328,8.065629254,0.870701427,-1.965803909,1.319580765,-0.255088971,Mers,7/26/2024 8:27,112
-9.93384552,-1.989642143,1.648457527,0.884196281,0.947048187,0.331306458,-0.430847168,-0.507446289,-0.67401123,0.320251465,10.26437406,1.337335897,-0.804027819,1.053116641,-0.418316904,Mers,7/26/2024 8:27,112
-13.5875082,-2.930591583,1.399453163,1.712997437,0.030893326,0.191753387,-0.513183594,-0.459533691,-0.623413086,0.369873047,13.97022603,1.723973311,-0.801421456,1.20215471,-0.168113948,Mers,7/26/2024 8:27,113
-8.175250053,-2.328432083,-1.395861626,0.919350624,-1.314576149,-1.635230064,-0.545532227,-0.303161621,-0.51361084,0.588806152,8.614217264,2.290697139,2.424546603,1.209964059,-0.826853719,Mers,7/26/2024 8:27,113
-10.08588219,-1.934573174,0.732647896,0.964093208,-1.841897964,-0.889522552,-0.543762207,-0.335876465,-0.618713379,0.456787109,10.29584216,2.261263849,3.03403532,1.195814962,-0.463456351,Mers,7/26/2024 8:27,113
-9.653715134,-1.374313354,2.172803879,-0.310001373,0.9864645,0.722270966,-0.545410156,-0.393981934,-0.695129395,0.253051758,9.990196684,1.261304249,-0.794786956,0.897180112,-0.167473486,Mers,7/26/2024 8:27,112
-8.2039814,-2.096186638,-0.154430389,1.262376785,-0.925742149,-2.388395309,-0.682861328,-0.026367188,-0.585388184,0.436279297,8.46895259,2.855700584,2.635332252,0.578532403,-0.084844594,Mers,7/26/2024 8:27,111
-11.43505573,-2.910240173,2.346388817,0.95450592,1.47117424,1.546811104,-0.609985352,-0.282043457,-0.691650391,0.264587402,12.03060838,2.338388288,-1.044149608,0.789624197,-0.138442783,Mers,7/26/2024 8:27,112
-7.66407299,-1.824437141,-1.729863167,-0.005326271,-1.259180069,-0.9864645,-0.689941406,-0.03137207,-0.593383789,0.413330078,8.065916703,1.599585892,2.637872395,0.563107549,-0.05781683,Mers,7/26/2024 8:27,111
-8.552349091,-1.379101753,-1.291710854,-1.043990135,0.780861855,1.350795746,-0.635253906,-0.229309082,-0.670715332,0.30657959,8.75860226,1.877314514,-3.082043422,0.779036662,-0.122634519,Mers,7/26/2024 8:27,111
-11.13337708,-2.961717606,2.687572479,1.472239494,0.34622097,-0.019174576,-0.489562988,-0.31817627,-0.808837891,-0.069519043,11.82991556,1.512522976,-0.71978409,0.200414324,-0.363512703,Mers,7/26/2024 8:27,111
-12.912323,-0.861938477,1.086999893,0.087353706,-1.811004639,-1.635230064,-0.712524414,0.117858887,-0.510803223,0.466369629,12.98663128,2.441586745,2.620715403,0.31360683,0.051465897,Mers,7/26/2024 8:27,111
-13.06435966,0.022745132,-0.415406227,-0.678593636,0.837323189,0.271650314,-0.48059082,-0.274536133,-0.832702637,-0.015258789,13.0709821,1.111482496,-0.850342005,0.240787028,-0.446564679,Mers,7/26/2024 8:27,111
-8.371581078,-1.661625862,2.403851509,-0.58484745,0.610414505,0.12677002,-0.448425293,-0.278137207,-0.844665527,-0.089782715,8.866953949,0.8548234,-0.812998968,0.097931249,-0.501821618,Mers,7/26/2024 8:27,111
-9.325699806,-2.285334587,0.812855721,0.189621925,1.57024765,1.255984306,-0.614562988,-0.190368652,-0.764099121,0.047790527,9.635982849,2.019685801,-0.802322176,0.312060693,-0.184906677,Mers,7/26/2024 8:27,111
-12.8979578,-0.545894623,-1.655640602,-2.347913742,-0.429314613,-0.186426163,-0.640197754,0.075500488,-0.735412598,-0.20892334,13.01523961,2.394110417,-0.536604704,-0.415841872,-0.183567146,Mers,7/26/2024 8:27,110
-7.235497475,-2.236251831,-1.725074768,-0.502820015,-0.925742149,-0.808560371,-0.727355957,-0.024169922,-0.672851563,0.132751465,7.767182817,1.328004656,2.614932188,0.215467698,0.060903993,Mers,7/26/2024 8:27,111
-7.861600876,-1.289316177,0.855952263,1.323098183,-0.08309269,0.189621925,-0.600769043,0.129211426,-0.718994141,-0.324707031,8.012475199,1.339197398,-0.318142973,-0.671520865,-0.304085696,Mers,7/26/2024 8:27,110
-12.29819202,1.231853485,2.698347092,-1.820591927,0.663679123,0.71587944,-0.687927246,0.010009766,-0.711791992,-0.141479492,12.65085242,2.065794839,-0.07467057,-0.216876062,-0.054558324,Mers,7/26/2024 8:27,110
-10.79339027,-1.315653801,-1.462901115,-1.045055389,-1.474370956,-2.117810249,-0.728820801,-0.018493652,-0.679504395,0.082336426,10.9712487,2.7840673,2.467132267,0.139303144,0.063704613,Mers,7/26/2024 8:27,111
-7.076278687,-1.109745979,-0.287312508,-0.576325417,-1.492480278,-1.213373184,-0.82598877,0.126281738,-0.549316406,-0.002563477,7.168528766,2.007964853,1.92420416,-0.21303874,0.412188322,Mers,7/26/2024 8:27,111
-8.420663834,-1.46409893,-1.617332458,-0.720140457,-0.335568428,-0.15127182,-0.790588379,0.11529541,-0.59967041,-0.046020508,8.698674,0.808759304,1.823021261,-0.239787999,0.286834882,Mers,7/26/2024 8:27,110
-9.74948597,-1.744228363,0.238229752,0.098007202,1.322032928,1.417909622,-0.708251953,0.045471191,-0.697265625,-0.100830078,9.90714705,1.94109355,0.287773062,-0.206484973,0.007468246,Mers,7/26/2024 8:27,110
-13.48335743,-0.933766365,1.960910797,0.103333473,-1.063165665,0.149141312,-0.695678711,0.032897949,-0.710144043,-0.103210449,13.65715997,1.07853705,-0.110753524,-0.193567898,-0.030475357,Mers,7/26/2024 8:27,111
-12.86922646,-1.787325859,0.221469879,0.788319588,-2.234992027,-0.778731346,-0.803039551,0.060424805,-0.592346191,-0.024902344,12.99463629,2.49460611,1.678947034,-0.126888861,0.30351281,Mers,7/26/2024 8:27,111
-14.58592129,-1.850773811,-1.098971367,1.106842995,2.527949333,1.734302521,-0.662841797,-0.00012207,-0.748718262,-0.006469727,14.74388692,3.259361054,-1.49862296,-0.009526323,-0.121547824,Mers,7/26/2024 8:27,111
-6.781783104,0.077813148,-1.061860085,-0.131031036,0.960897446,0.600827217,-0.749511719,0.068237305,-0.658447266,0.001220703,6.864851331,1.140827059,2.209124073,-0.100852662,0.133810829,Mers,7/26/2024 8:27,111
-9.98651886,1.27375412,0.486037254,-1.592617989,0.788319588,-0.169382095,-0.61138916,0.04284668,-0.78112793,-0.119140625,10.07914881,1.785096671,-1.232740415,-0.240841714,-0.257366372,Mers,7/26/2024 8:27,111
-9.202394485,-1.167208672,2.14766407,-0.143815041,0.467664719,0.147010803,-0.600097656,0.024597168,-0.790405273,-0.120666504,9.521496799,0.510886711,-1.170967433,-0.222093606,-0.287355056,Mers,7/26/2024 8:27,111
-8.282993317,-1.582614899,-0.606947899,-0.561410904,-1.491415024,-1.173956871,-0.838317871,0.167419434,-0.518798828,0.005981445,8.454645703,1.979311929,1.996120053,-0.278064567,0.486954704,Mers,7/26/2024 8:27,110
-12.45860767,-2.065061569,0.356746674,0.730792999,-1.788633347,-0.210927963,-0.792480469,0.074707031,-0.604675293,-0.027404785,12.6336318,1.943645611,1.750950346,-0.152135913,0.273039563,Mers,7/26/2024 8:27,109
-7.765829086,-2.278151512,-1.313259125,-0.070308685,-0.663679123,-0.416530609,-0.710144043,0.045837402,-0.701599121,-0.036376953,8.198946593,0.786708992,2.411959938,-0.116409126,0.012958985,Mers,7/26/2024 8:27,113
-14.37522507,-1.568249702,0.550683022,0.527321815,1.166500092,0.651961327,-0.592468262,0.047912598,-0.803527832,-0.032897949,14.47099702,1.436608622,-1.698570758,-0.109863095,-0.299928359,Mers,7/26/2024 8:27,111
-9.38435936,-2.645672798,1.494027138,0.828800201,2.144442558,2.342587471,-0.64050293,0.06817627,-0.762512207,-0.060913086,9.863969903,3.282264419,-1.72035997,-0.181218389,-0.1740341,Mers,7/26/2024 8:27,113
-8.213559151,-2.157240868,2.833623886,0.019174576,0.844779968,0.129965782,-0.670166016,0.063049316,-0.736450195,-0.067993164,8.952411207,0.854933894,-1.589483909,-0.185719975,-0.095733625,Mers,7/26/2024 8:27,110
-10.6940279,-1.96330452,1.826830864,0.527321815,1.131344795,0.938526154,-0.682189941,0.120727539,-0.718139648,-0.065490723,11.02515797,1.561678803,-2.516884015,-0.261760203,-0.041498035,Mers,7/26/2024 8:27,114
-9.694417953,-1.717891693,-0.715888023,-0.599761963,-1.818461418,-1.067426682,-0.802124023,0.169616699,-0.572387695,-0.015930176,9.871443004,2.192239965,2.10167397,-0.294586023,0.360612613,Mers,7/26/2024 8:27,112
-13.28942108,-1.837605476,1.608952522,0.606153488,-0.731858253,-0.698834419,-0.81842041,0.122619629,-0.557800293,0.063354492,13.51200336,1.179579628,2.175985815,-0.130399747,0.378892883,Mers,7/26/2024 8:27,112
-8.244684219,-2.596590042,1.859153748,0.492166519,1.001379013,0.332371712,-0.627563477,0.087402344,-0.770324707,-0.072021484,8.841580762,1.164241712,-1.786416398,-0.222492016,-0.203756923,Mers,7/26/2024 8:27,113
-10.33488655,-1.355158806,2.166817665,0.109724998,0.002130508,-0.057525635,-0.749267578,0.085449219,-0.656311035,-0.023986816,10.64619341,0.123908486,2.12225256,-0.160218876,0.139340372,Mers,7/26/2024 8:27,112
-9.999688148,-2.085412979,-0.132882118,0.225842476,1.233613014,0.556084633,-0.747619629,0.106079102,-0.655639648,-0.001281738,10.21569224,1.371873176,2.432200094,-0.160988856,0.142157587,Mers,7/26/2024 8:27,114
-8.510449409,-2.020767212,1.970487595,0.199210167,0.423987389,0.363265991,-0.65814209,0.15020752,-0.725769043,-0.132324219,8.966274066,0.592800284,-1.989281192,-0.400402921,-0.096363003,Mers,7/26/2024 8:27,113
-11.79898548,-0.979257584,0.124502182,0.028762817,-1.743890762,-0.411204338,-0.780456543,0.115112305,-0.614562988,-0.000183105,11.84020712,1.791946232,2.14530573,-0.180890243,0.249697677,Mers,7/26/2024 8:27,114
-14.30339622,-1.697540283,1.185165405,0.768078804,-0.418661118,-0.042611122,-0.708129883,0.049743652,-0.704101563,0.016479492,14.4524532,0.875806993,3.103778197,-0.047261053,0.007947961,Mers,7/26/2024 8:27,114
-7.143318176,-1.91661644,-0.337592125,-0.136357307,-1.041859627,-0.570999146,-0.804504395,0.186096191,-0.564025879,0.001098633,7.40367352,1.195869902,2.194067327,-0.302796967,0.381051835,Mers,7/26/2024 8:27,114
-7.031984329,-0.639270782,2.342797279,-1.257049561,-0.052199364,-0.164054871,-0.69744873,0.211975098,-0.674682617,-0.115966797,7.439500644,1.268783817,-3.139499218,-0.469191259,0.070191368,Mers,7/26/2024 8:27,112
-11.49730682,-1.418607712,0.673987389,0.152337074,-1.667189598,-0.97474575,-0.796813965,0.163208008,-0.581665039,0.010925293,11.60408424,1.937229211,2.225418203,-0.24997849,0.334192563,Mers,7/26/2024 8:27,114
-9.389147758,-0.726661682,1.392270088,0.121443748,0.829865456,0.789384842,-0.709960938,0.149291992,-0.683044434,-0.084350586,9.519587639,1.151761124,2.882346461,-0.333353086,0.055697021,Mers,7/26/2024 8:27,113
-9.312531471,-1.543109894,-1.1456604,-0.100137711,0.46553421,0.474056244,-0.762023926,0.116455078,-0.636962891,-0.002319336,9.508783744,0.671921859,2.302002857,-0.181431512,0.191940326,Mers,7/26/2024 8:27,114
-6.793753624,-2.025555611,-0.414209366,0.428249359,-0.693508148,-0.312131882,-0.818359375,0.151672363,-0.553405762,0.03314209,7.101375447,0.872798589,2.147497111,-0.213173835,0.398223403,Mers,7/26/2024 8:27,114
-11.36083317,-2.121326447,1.722680092,0.526256561,1.67784214,1.238940239,-0.705688477,0.136169434,-0.688110352,-0.099731445,11.68486983,2.151063256,2.812580933,-0.335709219,0.035064839,Mers,7/26/2024 8:27,111
-8.679244995,-1.509590149,-1.029537201,-0.222646713,0.578455925,0.582716942,-0.780944824,0.16998291,-0.600708008,-0.021057129,8.869504098,0.850730187,2.23133751,-0.295055466,0.28957245,Mers,7/26/2024 8:27,111
-6.501652718,-1.822042465,-0.165204048,-0.434640884,-1.106842995,-1.976125717,-0.847961426,0.250305176,-0.457641602,0.094482422,6.754155698,2.306314585,2.277686932,-0.344812367,0.599950355,Mers,7/26/2024 8:27,112
-9.3496418,-0.044293404,2.043513298,-1.059969902,0.610414505,0.216255188,-0.676940918,0.124023438,-0.718200684,-0.102966309,9.570460297,1.242138626,-2.126516705,-0.321314467,-0.055738088,Mers,7/26/2024 8:27,113
-12.39994812,-2.224280357,1.607754707,0.95024395,-0.185360909,0.216255188,-0.722351074,0.100219727,-0.682312012,-0.050720215,12.70003983,0.992012368,2.486126953,-0.215669718,0.065259222,Mers,7/26/2024 8:28,114
-11.32491875,-0.816447258,0.618919373,-0.087353706,0.989660263,0.147010803,-0.674621582,0.080627441,-0.733703613,-0.010559082,11.3711667,1.004325785,-2.430513827,-0.124602673,-0.077623233,Mers,7/26/2024 8:28,112
-12.1700983,-2.69715023,-1.152842522,-0.56034565,-2.519426346,-1.520177841,-0.839599609,0.221435547,-0.495910645,-0.007446289,12.5185845,2.995402649,2.038496876,-0.388952955,0.549564765,Mers,7/26/2024 8:28,114
-8.316513062,-1.385087013,1.664020538,0.088418961,0.349416733,0.187491417,-0.651000977,0.095825195,-0.748535156,-0.081542969,8.593708157,0.406279457,-1.832929967,-0.249418143,-0.138740993,Mers,7/26/2024 8:28,114
-9.115003586,-1.993233681,1.489238739,0.341959953,0.676463127,0.454881668,-0.653381348,0.081787109,-0.750427246,-0.05657959,9.448497389,0.884000172,-1.907045771,-0.192989833,-0.135754427,Mers,7/26/2024 8:28,113
-14.84570026,-2.525959015,1.818450928,1.304987907,-0.971549988,-0.290825844,-0.763366699,0.086669922,-0.638916016,-0.039672852,15.16845572,1.652719725,1.860155911,-0.184054521,0.184167284,Mers,7/26/2024 8:28,113
-10.7383213,-0.835601807,-0.047884941,0.282302856,1.926056862,1.752412796,-0.709228516,0.016052246,-0.704589844,0.016845703,10.77088983,2.61922518,3.000835654,0.000969201,0.006538843,Mers,7/26/2024 8:28,111
-9.990110397,-1.825634003,-1.104957581,-1.075949669,-1.914338112,-1.346534729,-0.854248047,0.17175293,-0.487854004,0.053100586,10.21548709,2.575949121,2.077845833,-0.244043774,0.546710859,Mers,7/26/2024 8:28,110
-7.72512722,-1.880702019,-1.332413673,-0.508146286,-0.673267365,-0.964093208,-0.822570801,0.163452148,-0.533447266,0.109924316,8.061634874,1.281006365,2.325892999,-0.152211343,0.418852621,Mers,7/26/2024 8:28,110
-9.856031418,-1.44973278,1.686765671,0.026632309,0.141683578,0.067112923,-0.658813477,0.132507324,-0.733581543,-0.101013184,10.10387346,0.159020944,-2.073929516,-0.328684296,-0.102522192,Mers,7/26/2024 8:28,111
-14.00890064,-1.523955345,1.491632462,-0.131031036,-1.912207603,-0.66048336,-0.78717041,0.191833496,-0.582214355,-0.067565918,14.17027538,2.027300007,2.010921353,-0.390539121,0.337858806,Mers,7/26/2024 8:28,111
-9.342459679,-1.905841827,1.046298027,0.351547241,1.08127594,0.015978813,-0.605285645,0.090332031,-0.789245605,-0.051269531,9.592107458,1.137100894,-1.868825973,-0.191449252,-0.25937936,Mers,7/26/2024 8:28,110
-8.221939087,-2.182380676,-0.64884758,-0.480448723,0.175773621,-0.222646713,-0.790222168,0.136108398,-0.595581055,0.048156738,8.531358095,0.557941664,2.32513349,-0.158410963,0.291082565,Mers,7/26/2024 8:28,109
-8.583474159,-1.745426178,-1.575431824,1.404061317,2.421419144,1.568116188,-0.676025391,0.01574707,-0.73614502,0.027893066,8.899692501,3.20837143,-2.196304642,0.019777134,-0.08549317,Mers,7/26/2024 8:28,109
-13.5922966,-1.535926819,1.187560081,0.068178177,-1.394473076,-1.185674667,-0.850524902,0.161376953,-0.496398926,0.06439209,13.7302548,1.831673508,2.105857407,-0.212170175,0.523052836,Mers,7/26/2024 8:28,109
-9.134157181,-1.412621498,1.465295792,-0.758490562,-2.013410568,-0.33343792,-0.79699707,0.105102539,-0.594177246,-0.026916504,9.358173896,2.177225504,1.863771988,-0.20086721,0.301192923,Mers,7/26/2024 8:28,110
-7.465348244,-1.897461891,-0.421391487,-0.843714714,-1.228286743,-0.877803802,-0.733886719,0.019348145,-0.670593262,0.106323242,7.714230799,1.72947459,2.639777983,0.114450304,0.078752832,Mers,7/26/2024 8:28,113
-12.17728043,-0.39146328,0.890669823,-0.292956352,0.322784424,-0.003195763,-0.642211914,0.080505371,-0.761047363,-0.043334961,12.21608345,0.43591676,-1.942908012,-0.170183227,-0.165536646,Mers,7/26/2024 8:28,111
-14.96541405,-2.372725487,0.035913467,0.564606667,-2.29358387,-0.331306458,-0.762084961,-0.032470703,-0.588806152,0.267333984,15.15238376,2.385177483,2.451960699,0.372888189,0.183881928,Mers,7/26/2024 8:28,111
-9.822511673,-2.18836689,0.203513145,0.347286224,1.367840767,0.450619698,-0.709289551,0.086364746,-0.69921875,0.022827148,10.06539134,1.481436532,3.094170384,-0.090717261,0.021229259,Mers,7/26/2024 8:28,112
-14.23994827,-1.868730545,2.128509521,0.034089088,-1.260245323,0.376049042,-0.682922363,-0.11529541,-0.696472168,0.187744141,14.51891295,1.315596147,3.107514225,0.432335734,-0.044731757,Mers,7/26/2024 8:28,110
-9.386753082,-1.501210213,-1.884293556,-0.423987389,0.227972984,-0.341959953,-0.702209473,-0.15246582,-0.599243164,0.353027344,9.690992092,0.590485899,2.497027246,0.690891288,0.044332439,Mers,7/26/2024 8:28,108
-9.052752495,-0.845178604,1.860350609,-0.490036011,0.276976585,0.044741631,-0.635437012,-0.150390625,-0.743774414,0.143005371,9.280493467,0.564670819,-1.300764195,0.415726888,-0.161836279,Mers,7/26/2024 8:28,110
-12.32812023,-1.715497017,-0.202315331,1.019488335,1.819526672,1.10577774,-0.663269043,-0.171020508,-0.694213867,0.221130371,12.44855051,2.360673248,-2.760985749,0.563192984,-0.072822125,Mers,7/26/2024 8:28,108
-7.334859848,-2.044710159,-1.143265724,0.653026581,-1.079145432,-0.642374039,-0.73034668,-0.109619141,-0.541809082,0.401245117,7.699874359,1.415500966,2.447577857,0.637161697,0.12849519,Mers,7/26/2024 8:28,108
-9.440624237,0.112530708,0.714690208,-1.098320961,0.488970757,0.204536438,-0.661132813,-0.129760742,-0.722961426,0.152832031,9.468306672,1.219523058,-1.75178705,0.403415007,-0.10013686,Mers,7/26/2024 8:28,109
-7.980116844,-2.456525803,1.174390793,-0.205601692,0.599761963,0.009587288,-0.562133789,-0.31060791,-0.708251953,0.293151855,8.431843073,0.63409651,-1.058268163,0.870198857,-0.277765273,Mers,7/26/2024 8:28,106
-10.98612881,-1.851970673,0.548288345,0.742511749,-1.267703056,-0.731858253,-0.64831543,-0.226318359,-0.595153809,0.417419434,11.15461527,1.641344339,2.533714982,0.91131299,-0.097321006,Mers,7/26/2024 8:28,107
-11.00767708,-1.732256889,2.031541824,0.45275116,-0.243952751,0.029828072,-0.575134277,-0.346496582,-0.626953125,0.395019531,11.32681909,0.51515655,-2.219375553,1.105930182,-0.216100871,Mers,7/26/2024 8:28,107
-11.04478836,-1.249811172,-0.161613464,0.569932938,1.734302521,1.230417252,-0.589477539,-0.331665039,-0.625976563,0.388122559,11.11645163,2.20148936,-3.054523786,1.069435705,-0.175014288,Mers,7/26/2024 8:28,107
-12.0288353,-0.008379936,0.295692444,-0.557149887,0.988595009,0.131031036,-0.562683105,-0.333190918,-0.696044922,0.296508789,12.03247202,1.142324481,-0.972625365,0.907113173,-0.242345915,Mers,7/26/2024 8:28,107
-10.48812008,-1.68556881,2.491242409,0.192818642,-0.066047668,0.034089088,-0.447875977,-0.532470703,-0.520263672,0.495178223,10.91091627,0.206647983,-0.775828493,1.445880467,-2.663730352,Mers,7/26/2024 8:28,107
-13.05597973,-2.23505497,1.612543106,1.048252106,-1.126018524,-0.199210167,-0.526489258,-0.415710449,-0.479492188,0.565795898,13.34370161,1.551268798,2.362748556,1.37209419,-1.23899014,Mers,7/26/2024 8:28,107
-8.354821205,-1.589797974,-0.33040905,-0.983268738,-1.687429428,-0.782992363,-0.627807617,-0.265625,-0.505249023,0.529174805,8.511149459,2.104117992,2.4201793,1.051669887,-0.197260142,Mers,7/26/2024 8:28,107
-7.994482994,-1.778945923,-1.857956886,-0.137422562,-0.177904129,-0.349416733,-0.625061035,-0.243225098,-0.557495117,0.489196777,8.398119476,0.415483926,2.489108363,1.015057127,-0.215003223,Mers,7/26/2024 8:28,107
-7.959765434,-1.727468491,1.55747509,-0.010652542,0.664744377,0.325980186,-0.478637695,-0.502563477,-0.562866211,0.448974609,8.292631778,0.740446923,-0.795651933,1.406397508,-0.397877675,Mers,7/26/2024 8:28,107
-7.304931641,-1.802887917,-1.193545341,-0.428249359,-1.102581978,-0.483644485,-0.592468262,-0.213378906,-0.555664063,0.54284668,7.61820068,1.277887522,2.519163515,1.027716648,-0.451405558,Mers,7/26/2024 8:28,112
-7.752660751,-1.926193237,-0.829615593,0.988595009,-0.938526154,-0.86715126,-0.513244629,-0.331481934,-0.496765137,0.616394043,8.031328106,1.615581239,2.384482223,1.261897079,-1.190618841,Mers,7/26/2024 8:28,113
-12.93985748,-1.760988235,1.328822136,-0.312131882,-1.793959618,-0.167251587,-0.562988281,-0.323364258,-0.518310547,0.55657959,13.12656693,1.82857609,2.425633326,1.225758677,-0.611621403,Mers,7/26/2024 8:28,114
-12.05876446,-0.265764236,-0.258581161,-0.599761963,0.533713341,0.414400101,-0.492858887,-0.449523926,-0.573486328,0.475524902,12.06446415,0.903488675,-0.922959689,1.419110747,-0.673855979,Mers,7/26/2024 8:28,108
-11.89954472,-1.200728416,-1.295302391,-0.098007202,1.669320107,1.719388962,-0.539978027,-0.411865234,-0.582092285,0.44720459,12.02990946,2.398443961,-1.773207515,1.30706897,-0.289937974,Mers,7/26/2024 8:28,110
-10.16130161,-1.919011116,2.142875671,0.23436451,-0.242887497,-0.200275421,-0.507446289,-0.455932617,-0.564819336,0.464355469,10.5606141,0.39246822,-0.887773386,1.411105697,-0.433258713,Mers,7/26/2024 8:28,115
-12.57592773,-0.247806549,-0.141262054,-1.108973503,0.395224571,0.35367775,-0.532226563,-0.426879883,-0.609191895,0.404296875,12.57916219,1.229273217,-0.871393703,1.243709697,-0.224145311,Mers,7/26/2024 8:28,117
-8.612205505,-1.565855026,-1.009186745,0.260996819,0.113986015,-0.120378494,-0.577087402,-0.301025391,-0.530090332,0.543457031,8.811381476,0.309197563,2.446809723,1.177363672,-0.492363809,Mers,7/26/2024 8:28,117
-10.5288229,-1.023551941,-0.890669823,0.47299099,1.578769684,1.282616615,-0.538146973,-0.402709961,-0.561340332,0.482849121,10.61588729,2.088382047,2.549555696,1.349071842,-0.421387241,Mers,7/26/2024 8:28,117
-8.122576714,-1.28572464,2.403851509,-0.180034637,0.412269592,-0.093745232,-0.443969727,-0.494445801,-0.57635498,0.475646973,8.567837674,0.45952895,-0.804392105,1.411385246,-1.23025791,Mers,7/26/2024 8:28,116
-8.229122162,-1.522758484,2.2087183,-0.336633682,0.566737175,0.181099892,-0.520202637,-0.434326172,-0.597045898,0.429321289,8.655384537,0.683601077,-0.897460654,1.303635354,-0.317447769,Mers,7/26/2024 8:28,118
-9.783005714,-2.117735863,1.692751884,0.537974358,0.231168747,-0.096941948,-0.56463623,-0.333374023,-0.531738281,0.536010742,10.1517198,0.593509175,2.439230907,1.242226967,-0.522846449,Mers,7/26/2024 8:28,118
-13.03921986,-2.361951828,0.885881424,-0.308935165,-1.162238121,-1.219764709,-0.564208984,-0.244995117,-0.515197754,0.596862793,13.28099608,1.712911069,2.449373195,1.10056088,-0.700019222,Mers,7/26/2024 8:28,118
-9.725543022,-1.911828041,-0.691945076,0.33343792,1.066361427,0.700964928,-0.524658203,-0.414794922,-0.601501465,0.436889648,9.935796975,1.318961474,-1.031100042,1.289984048,-0.373631199,Mers,7/26/2024 8:28,120
-10.26425552,-1.836408615,1.824437141,0.221581459,1.325228691,0.709486961,-0.519470215,-0.427856445,-0.637390137,0.375244141,10.58564636,1.519441073,-0.854368576,1.175470638,-0.269302701,Mers,7/26/2024 8:28,119
-13.49772358,-1.935770988,0.378294945,0.836257935,-0.435706139,0.111855507,-0.561767578,-0.406616211,-0.533508301,0.484191895,13.64107247,0.949567706,2.404092391,1.340016861,-0.183400295,Mers,7/26/2024 8:28,119
-8.078282356,-1.515575409,1.744228363,0.164054871,0.887392044,1.072753906,-0.545654297,-0.454162598,-0.579040527,0.400878906,8.40225846,1.401848631,-0.754102974,1.286580423,0.029926969,Mers,7/26/2024 8:28,119
-8.256655693,-2.136889458,-0.543499947,-0.79151535,-1.071688652,-0.774470329,-0.550842285,-0.25970459,-0.527404785,0.592407227,8.545996254,1.541044258,2.45753534,1.145676579,-0.756945503,Mers,7/26/2024 8:28,120
-11.77863407,-1.539518356,-3.032348633,-0.469795227,-0.738250732,-1.704474449,-0.465087891,-0.331970215,-0.547058105,0.611755371,12.25975022,1.915973603,2.420158263,1.361234307,-1.283095706,Mers,7/26/2024 8:28,120
-6.90987587,-2.624124527,2.24104023,-1.322032928,0.011717796,0.526256561,-0.624938965,-0.299499512,-0.62878418,0.352722168,7.723643919,1.422973766,2.706343021,0.957769106,-0.068745217,Mers,7/26/2024 8:28,119
-7.199584007,-2.031541824,-1.517970085,-0.30254364,-0.624263763,-0.735054016,-0.503051758,-0.247253418,-0.53314209,0.633728027,7.633177925,1.010713761,2.450618193,1.179713141,-1.030394137,Mers,7/26/2024 8:28,118
-12.34368324,-0.37111187,0.876303673,-0.990725517,0.207732201,0.350481987,-0.605285645,-0.280090332,-0.609863281,0.428039551,12.38031292,1.071227026,2.629507429,1.037548277,-0.217758078,Mers,7/26/2024 8:28,118
-8.899518967,-1.071437836,0.593779564,-0.971549988,-1.69701767,-1.936709404,-0.474243164,-0.383361816,-0.638793945,0.469116211,8.983428691,2.752203057,-1.18396938,1.297737973,-0.805398289,Mers,7/26/2024 8:28,118
-14.07474327,-1.980064392,2.182380676,1.236809731,-0.719075203,-0.511342049,-0.447998047,-0.55682373,-0.590270996,0.375183105,14.37991094,1.519288698,-0.778744245,1.228038248,0.192402089,Mers,7/26/2024 8:28,118
-10.08588219,-2.026753426,-0.044293404,0.971549988,1.578769684,1.494610786,-0.527893066,-0.350402832,-0.531555176,0.562194824,10.28759986,2.381235918,2.433304184,1.315646881,-0.867552855,Mers,7/26/2024 8:29,118
-6.970930099,-1.616134644,-0.319635391,-1.170761108,-1.29540062,-1.024815559,-0.801330566,-0.05065918,-0.568664551,0.178833008,7.162955006,2.024596569,2.152648849,0.288569832,0.313188701,Mers,7/26/2024 8:29,118
-6.800936699,-2.306882858,1.047494888,-2.682416916,-0.673267365,0.30254364,-0.690917969,-0.272827148,-0.668151855,0.041931152,7.257526717,2.782118278,-0.135235845,0.447857259,0.114589293,Mers,7/26/2024 8:29,118
-11.26745605,-1.412621498,1.749016762,0.213058472,0.233299255,0.384572029,-0.69732666,-0.225341797,-0.671081543,0.112426758,11.48956592,0.497712869,-0.015506754,0.483825209,0.083419595,Mers,7/26/2024 8:29,118
-9.538789749,-1.770565987,-0.55547142,-0.644504547,0.784057617,1.316706657,-0.696105957,-0.238220215,-0.666870117,0.118225098,9.717610935,1.662482745,-0.019126886,0.51132659,0.094448573,Mers,7/26/2024 8:29,118
-9.857228279,-2.618139267,2.279349327,1.247462273,0.967288971,0.464468956,-0.452880859,-0.575378418,-0.64263916,0.225524902,10.45059979,1.645460874,-0.739347587,0.94589015,0.220524328,Mers,7/26/2024 8:29,118
-9.519636154,-0.028730392,1.28572464,-1.988908768,-0.07563591,0.42185688,-0.749389648,0.099060059,-0.635009766,-0.159301758,9.606111898,2.034561895,0.994763361,-0.358409783,0.15392849,Mers,7/26/2024 8:29,119
-13.70961666,-1.714300156,0.863135338,0.598696709,0.257801056,0.481513977,-0.68347168,-0.201293945,-0.700561523,0.0390625,13.84331668,0.810404124,-0.267288464,0.336185769,0.016322276,Mers,7/26/2024 8:29,118
-11.92588139,-2.455327988,0.319635391,1.388081551,1.417909622,1.117495537,-0.774902344,0.042907715,-0.630187988,-0.022644043,12.18020727,2.277286623,1.66449084,-0.09518224,0.207000473,Mers,7/26/2024 8:29,118
-12.16411209,-1.276147842,0.525543213,0.568867683,-1.673581123,-0.663679123,-0.759765625,-0.15411377,-0.614196777,0.147460938,12.24215553,1.888108629,1.744557409,0.428295379,0.223748018,Mers,7/26/2024 8:29,118
-8.147716522,-2.348782539,1.831619263,-0.352612495,0.611479759,0.762752533,-0.699829102,-0.030944824,-0.704711914,-0.112548828,8.675073087,1.03924708,0.024092829,-0.115573945,-0.018694933,Mers,7/26/2024 8:29,118
-10.38277149,-1.455718994,-2.171607018,-1.550006866,-0.200275421,0.07563591,-0.793212891,0.070068359,-0.604248047,-0.028381348,10.70686409,1.564721164,1.722168503,-0.145974869,0.273848479,Mers,7/26/2024 8:29,118
3.542328835,-12.51008511,-2.096186638,0.667941093,0.19494915,-0.248213768,-0.382263184,0.532531738,-0.501708984,0.564453125,13.16982617,0.738756082,-3.06862526,0.159928736,-0.141857409,Mers,7/26/2024 8:29,120
-6.901495934,-1.359947205,-0.037110329,-1.021618843,-1.472239494,-1.064230919,-0.837036133,0.15234375,-0.524902344,0.024963379,7.034307336,2.08417409,2.035343366,-0.230873336,0.467740125,Mers,7/26/2024 8:29,118
-11.49610996,-0.517163277,0.569836617,-0.43357563,-2.238188744,-1.397668839,-0.823242188,0.120788574,-0.554260254,-0.020385742,11.52183648,2.674126935,1.845200641,-0.223326275,0.400942824,Mers,7/26/2024 8:29,119
-12.81056595,-2.949746132,1.332413673,1.906881332,0.275911331,0.751033783,-0.731506348,-0.013366699,-0.681030273,-0.030883789,13.21313469,2.067939849,0.849172651,-0.022511842,0.070569763,Mers,7/26/2024 8:29,120
-0.138867378,-7.411477089,-1.376707077,2.429942131,-1.777979851,2.499186516,-0.717468262,0.32019043,-0.566650391,0.248291016,7.539535739,3.913024962,2.932272933,-0.179019207,0.236723377,Mers,7/26/2024 8:29,119
-6.90389061,-1.49642086,-0.004788399,-0.422922134,-1.405126572,-0.802167892,-0.790344238,0.055908203,-0.563476563,0.233886719,7.06420582,1.672338824,2.449387121,0.176114916,0.271864438,Mers,7/26/2024 8:29,121
-6.441795349,-3.065868378,2.280546188,2.00382328,0.574194908,0.330241203,-0.689453125,-0.274780273,-0.521972656,0.420410156,7.489804213,2.110466011,2.337383687,0.957545587,0.204973723,Mers,7/26/2024 8:29,119
-11.1357708,-3.181990623,3.344800949,1.138801575,1.144128799,1.191001892,-0.768005371,0.12109375,-0.628845215,0.002197266,12.05479776,2.006087048,2.284455317,-0.184279032,0.213073396,Mers,7/26/2024 8:29,119
-8.184827805,-2.25540638,-0.793701172,-0.761687279,0.639177322,0.344090462,-0.76953125,0.045837402,-0.634216309,0.05859375,8.526911849,1.052194567,2.230219884,0.003775606,0.189918173,Mers,7/26/2024 8:29,120
-9.739909172,-1.989642143,-1.987247467,-0.901240349,-0.112920761,-0.642374039,-0.638183594,-0.284545898,-0.483642578,0.527160645,10.13773441,1.112488054,2.391819413,1.061524419,-0.07429344,Mers,7/26/2024 8:29,121
-11.32731342,-1.965699196,1.018763542,0.955571175,1.318837166,1.357188225,-0.679504395,-0.202331543,-0.539306641,0.454406738,11.54165854,2.120001797,2.441460224,0.871195823,0.009699752,Mers,7/26/2024 8:29,120
-7.723929405,-1.668808937,-0.289707184,-0.491101265,-1.497806549,-1.095125198,-0.611694336,-0.224182129,-0.466125488,0.598571777,7.907460969,1.919349919,2.415174077,0.983209764,-0.464137918,Mers,7/26/2024 8:29,121
-13.08590794,-2.996434212,0.895458221,-0.123574257,-2.157225609,-0.630655289,-0.781738281,-0.019470215,-0.449523926,0.431762695,13.45442121,2.250915151,2.406006101,0.431921433,0.314319077,Mers,7/26/2024 8:29,120
-9.386753082,0.64884758,1.731060028,-1.828048706,0.131031036,-0.02023983,-0.694824219,-0.271972656,-0.553344727,0.370239258,9.567063574,1.832850473,2.298517626,0.907044322,0.197314349,Mers,7/26/2024 8:29,119
-10.09545898,-2.104566574,2.70313549,0.428249359,0.033023834,0.138487816,-0.583862305,-0.238098145,-0.383361816,0.674804688,10.66088336,0.451294762,2.366831271,0.919703179,-1.017796346,Mers,7/26/2024 8:29,121
-13.59349442,-0.179570198,-0.383083344,-0.826669693,0.933199883,-0.067112923,-0.513244629,-0.435974121,-0.485168457,0.557800293,13.6000768,1.248498677,2.357728117,1.420835739,-1.44628448,Mers,7/26/2024 8:29,122
-8.372777939,-0.872713089,3.392686844,-0.909763336,0.44103241,0.301478386,-0.551635742,-0.410949707,-0.51940918,0.506958008,9.076087404,1.055020441,2.394365385,1.37059409,-0.330116218,Mers,7/26/2024 8:29,122
-10.95500374,-0.823630333,0.231046677,-0.140618324,1.64588356,1.802481651,-0.519592285,-0.422790527,-0.410400391,0.618774414,10.98835094,2.444922557,2.340163924,1.244537168,-2.326717345,Mers,7/26/2024 8:29,122
-12.45501614,-2.415822983,1.298893929,0.737185478,-1.606467247,-0.200275421,-0.614074707,-0.191467285,-0.40802002,0.647888184,12.75346044,1.778845044,2.393267538,0.869262444,-0.598342078,Mers,7/26/2024 8:29,121
-8.196799278,-2.361951828,-1.672400475,0.315327644,-0.156598091,-0.851171494,-0.464294434,-0.305969238,-0.376953125,0.740783691,8.692712936,0.921112044,2.283924842,1.002095023,-1.835041212,Mers,7/26/2024 8:29,121
-13.53004551,-1.871125221,0.702718735,0.147010803,-1.869595528,-0.593369484,-0.49206543,-0.353271484,-0.37902832,0.699584961,13.6768803,1.966999481,2.308265291,1.071647659,-1.998326778,Mers,7/26/2024 8:29,120
-6.070683479,-3.531555176,2.012387276,-0.428249359,0.166185379,1.433889389,-0.644592285,-0.365966797,-0.574523926,0.347045898,7.305804707,1.505673893,1.928347653,1.056361786,0.200618483,Mers,7/26/2024 8:29,121
-8.567911148,-2.099778175,-0.360338211,-0.519864082,-1.951623917,-1.250658035,-0.44519043,-0.262573242,-0.353942871,0.77947998,8.828817217,2.375550483,2.264113682,0.90362154,-1.770361596,Mers,7/26/2024 8:29,120
-9.838074684,-3.17001915,2.643279076,1.748151779,0.676463127,0.320653915,-0.563537598,-0.403503418,-0.531066895,0.487487793,10.66881714,1.901698172,2.401822045,1.335975097,-0.189525558,Mers,7/26/2024 8:29,120
-11.86841965,-2.001613617,1.073831558,1.209111214,-1.374232292,-0.722270966,-0.481201172,-0.292480469,-0.480834961,0.672058105,12.08383036,1.967775309,2.354848631,1.188423667,-1.38266363,Mers,7/26/2024 8:29,123
-16.4654274,-1.137280464,2.057878494,-0.583782196,1.75347805,2.06774044,-0.577697754,-0.452514648,-0.548217773,0.401245117,16.63245533,2.773271976,-0.31544426,1.297079328,0.277270822,Mers,7/26/2024 8:29,122
-6.87755394,-1.691555023,-1.395861626,0,-0.408008575,-0.362200737,-0.428222656,-0.156188965,-0.460754395,0.761535645,7.218762794,0.545582598,2.338478136,0.989095047,-1.308808879,Mers,7/26/2024 8:29,124
-8.07588768,-0.919401169,2.407443047,-0.152337074,2.692005157,2.45657444,-0.504638672,-0.463562012,-0.445617676,0.57611084,8.477089262,3.647582258,2.342259346,1.377170352,-2.515947355,Mers,7/26/2024 8:29,123
-8.621782303,-1.517970085,0.521951675,-0.310001373,-1.525505066,-1.599010468,-0.450134277,-0.163574219,-0.475830078,0.737731934,8.769937104,2.231613998,2.370992988,1.014716264,-1.23813751,Mers,7/26/2024 8:29,124
-13.2906189,-0.519556999,1.319245338,-2.79001236,-0.602957726,0.074570656,-0.61895752,-0.183898926,-0.655578613,0.391540527,13.36603526,2.855396255,2.851176941,0.834591744,-0.243975809,Mers,7/26/2024 8:29,121
-12.12700081,-2.291320801,-0.75060463,1.420040131,1.611793518,1.499938011,-0.537353516,-0.264465332,-0.569580078,0.562927246,12.36437249,2.619963045,2.53380333,1.182319399,-0.732240301,Mers,7/26/2024 8:29,121
-8.692414284,-1.758594513,-1.497618675,-0.91082859,-0.800037384,-0.51666832,-0.579162598,-0.142944336,-0.580322266,0.554382324,8.99408597,1.317806772,2.601424084,0.942477532,-0.51130245,Mers,7/26/2024 8:29,120
-7.535979271,-1.55747509,2.640884399,-1.135605812,0.56034565,0.479383469,-0.494873047,-0.416015625,-0.57635498,0.499755859,8.135784083,1.354029659,-2.533188788,1.414582396,-0.81442907,Mers,7/26/2024 8:29,122
-10.54917431,-3.429798126,2.846792221,1.335882187,0.808560371,0.606153488,-0.512207031,-0.393493652,-0.542053223,0.537597656,11.45219716,1.675044221,2.450490774,1.402750609,-0.897264848,Mers,7/26/2024 8:29,122
-7.285777092,-1.369524956,-0.043096542,-1.311380386,-1.520177841,-1.396603584,-0.565429688,-0.16204834,-0.528076172,0.612548828,7.41350145,2.445641175,2.499833037,0.97946414,-0.658060637,Mers,7/26/2024 8:29,120
-11.97376728,-2.290122986,0.362731934,0.778731346,-1.626708031,-0.764883041,-0.553771973,-0.287231445,-0.496948242,0.603210449,12.19620189,1.958991474,2.413508387,1.162126403,-0.827137367,Mers,7/26/2024 8:29,121
-14.99055386,-1.203122139,0.306467056,-2.057087898,0.285499573,0.903370857,-0.672973633,-0.195922852,-0.678161621,0.221008301,15.0418792,2.264773616,3.034159883,0.598568615,-0.021173755,Mers,7/26/2024 8:29,121
-11.50329208,-3.155653954,2.257800102,1.454130173,0.366461754,0.249279022,-0.56060791,-0.355651855,-0.626708984,0.40802002,12.14007998,1.52017394,-1.865743363,1.143723509,-0.279747447,Mers,7/26/2024 8:29,122
-8.074690819,-2.117735863,2.904254913,-0.493231773,0.454881668,0.350481987,-0.569152832,-0.341918945,-0.673461914,0.324951172,8.838559476,0.756989126,-0.999186695,0.973559644,-0.213959703,Mers,7/26/2024 8:29,121
-8.418269157,-1.64486599,-1.432972908,0.227972984,1.383820534,1.495676041,-0.631896973,-0.221557617,-0.632507324,0.389221191,8.696335497,2.0503604,2.693631213,0.8825698,-0.163030584,Mers,7/26/2024 8:29,120
-13.97418404,-2.333220482,1.44973278,0.039415359,-1.454130173,-1.595814705,-0.620483398,-0.136779785,-0.499328613,0.589050293,14.24161025,2.159322279,2.478857049,0.860239045,-0.397710436,Mers,7/26/2024 8:29,119
-9.877579689,-2.777358055,2.004007339,0.820278168,-1.27622509,-1.082341194,-0.569030762,-0.248535156,-0.553283691,0.555297852,10.45448916,1.863617239,2.504381822,1.113665992,-0.574554961,Mers,7/26/2024 8:29,119
-8.223135948,-1.653245926,-0.204710007,-0.350481987,-0.269519806,-0.705225945,-0.636352539,-0.123291016,-0.56036377,0.515563965,8.390178371,0.832359407,2.558605314,0.825253594,-0.265927972,Mers,7/26/2024 8:29,119
-6.960156441,-2.169212341,2.621730804,-0.320653915,0.408008575,1.000313759,-0.541931152,-0.418273926,-0.612426758,0.395324707,7.747433915,1.126906184,-0.873228805,1.215565407,-0.186055958,Mers,7/26/2024 8:29,117
-7.665269852,-1.404241562,-1.152842522,-1.75347805,-0.922546387,-0.593369484,-0.586669922,-0.279052734,-0.585449219,0.484985352,7.877645724,2.068299894,2.561582398,1.109086879,-0.358405072,Mers,7/26/2024 8:29,115
-8.04356575,-0.909824371,0.496811867,-0.95450592,-1.461586952,-1.57024765,-0.572509766,-0.203125,-0.532104492,0.589782715,8.110089543,2.347976927,2.488609991,1.035728716,-0.616490601,Mers,7/26/2024 8:29,116
-11.22435951,-2.359557152,0.797292709,1.751347542,1.266637802,0.859694481,-0.610351563,-0.209533691,-0.641845703,0.414306641,11.49736631,2.326083433,2.784781668,0.906937276,-0.267626152,Mers,7/26/2024 8:29,115
-12.22995472,-1.807677269,0.766167641,1.277290344,-1.187805176,-0.367527008,-0.563781738,-0.354858398,-0.512939453,0.541442871,12.38654522,1.782534112,2.408520376,1.271622076,-0.525414646,Mers,7/26/2024 8:29,117
-10.91430092,1.343187332,0.19633007,-2.239253998,-0.366461754,-0.512407303,-0.604797363,-0.311401367,-0.645324707,0.34753418,10.99839362,2.326180115,-2.173594361,0.970581396,-0.131209898,Mers,7/26/2024 8:30,116
-12.84288883,-3.751828194,2.502017021,1.397668839,0.186426163,0.245018005,-0.565673828,-0.399353027,-0.587463379,0.418884277,13.61161627,1.431176691,-2.042861117,1.234445859,-0.124047808,Mers,7/26/2024 8:30,117
-8.239895821,-2.371528625,2.063864708,-0.294021606,0.612545013,0.816017151,-0.442932129,-0.540527344,-0.702087402,0.13684082,8.819272572,1.061858789,-0.72951159,0.735532771,-0.049123301,Mers,7/26/2024 8:30,117
-10.48213387,-0.392660141,1.349173546,-1.757739067,0.659418106,0.558215141,-0.490234375,-0.470092773,-0.710693359,0.18347168,10.57589626,1.958592099,-0.746976726,0.806248575,-0.146737719,Mers,7/26/2024 8:30,117
-11.24830246,-1.812465668,0.978060722,0.854367256,1.878117561,2.085850716,-0.490905762,-0.459777832,-0.679443359,0.293151855,11.43529373,2.933946521,-0.798737283,1.015558957,-0.234971102,Mers,7/26/2024 8:30,116
-8.230319023,-1.507195473,-1.140871048,-0.23436451,0.331306458,0.373918533,-0.524414063,-0.34777832,-0.669494629,0.394714355,8.444606336,0.551820407,-1.213266382,1.104585537,-0.452787089,Mers,7/26/2024 8:30,116
-12.68007851,-3.116147995,1.885490417,2.159356117,0.922546387,0.854367256,-0.463745117,-0.523193359,-0.636108398,0.326416016,13.19279513,2.498770515,-0.776869523,1.120983888,-0.089774921,Mers,7/26/2024 8:30,118
-7.024801254,-1.532335281,0.213089943,0.595500946,-1.131344795,-0.577390671,-0.567932129,-0.33972168,-0.605712891,0.441711426,7.19314197,1.402833707,2.767493283,1.170584088,-0.309397654,Mers,7/26/2024 8:30,117
-6.276590347,-2.728275299,2.330825806,-0.112920761,0.414400101,0.761687279,-0.536010742,-0.408996582,-0.684082031,0.278320313,7.22992541,0.874440423,-0.802856902,0.960086148,-0.177781219,Mers,7/26/2024 8:30,117
-11.28541374,-2.042315483,1.316850662,0.968354225,-1.031207085,-0.285499573,-0.514648438,-0.442626953,-0.59967041,0.42376709,11.5440769,1.443124376,-0.864793534,1.301039423,-0.313053265,Mers,7/26/2024 8:30,117
-12.79021549,0.250201225,1.57184124,-1.022685051,-0.387767792,-0.532648087,-0.576599121,-0.295410156,-0.680419922,0.342468262,12.8888672,1.216537118,-1.500526727,0.938565009,-0.268961701,Mers,7/26/2024 8:30,117
-10.39234924,-2.516382217,0.565048218,0.094810486,1.196328163,1.365710258,-0.578308105,-0.341674805,-0.635253906,0.381103516,10.70758524,1.818063423,-1.73419244,1.074561826,-0.20288567,Mers,7/26/2024 8:30,116
-9.550761223,-10.19482136,1.091789246,1.493545532,0.399485588,-3.038226128,-0.241210938,0.02746582,-0.683959961,0.687988281,14.01225986,3.408971252,2.972995684,1.1886403,-1.175868087,Mers,7/26/2024 8:30,118
-6.638126373,-2.704332352,0.325620651,0.021305084,0.553954124,0.513472557,-0.597106934,-0.330810547,-0.700256348,0.20916748,7.175246618,0.75562765,-0.751703757,0.758729871,-0.097445478,Mers,7/26/2024 8:30,119
-7.477319717,-2.164423943,-1.160025597,-0.813886642,-0.893783569,-0.556084633,-0.657470703,-0.1953125,-0.618530273,0.383483887,7.870241454,1.330597856,2.598491616,0.820104738,-0.0891022,Mers,7/26/2024 8:30,116
-11.83130836,-1.237839699,-0.274144173,-0.546496391,-1.449868202,-1.111104012,-0.583740234,-0.29473877,-0.605041504,0.454162598,11.89904449,1.906653674,2.644760639,1.10547226,-0.318586095,Mers,7/26/2024 8:30,117
-8.454183578,1.358750343,2.381105423,-2.510904312,0.12677002,-0.121443748,-0.676818848,-0.124938965,-0.592041016,0.419311523,8.887580408,2.517033906,2.573676493,0.728326072,-0.075462218,Mers,7/26/2024 8:30,119
-7.288171768,-1.371918678,0.973272324,-1.088732719,-1.525505066,-1.60220623,-0.732971191,0.028808594,-0.527282715,0.428894043,7.479763873,2.465678293,2.55057494,0.422525429,0.095046582,Mers,7/26/2024 8:30,119
-12.64895248,-3.038333893,2.073441505,2.335130692,1.523374557,1.227221489,-0.667419434,-0.165283203,-0.530822754,0.495422363,13.17295075,3.046239973,2.475510957,0.842920655,-0.09958313,Mers,7/26/2024 8:30,120
-13.52286339,-0.095770836,1.249811172,-0.590173721,-1.830179214,-1.443476677,-0.775390625,0.016723633,-0.53704834,0.331726074,13.58083334,2.404472061,2.47066466,0.336696807,0.236136713,Mers,7/26/2024 8:30,118
-7.877162933,-1.563461304,-1.23903656,-1.50206852,-0.593369484,0.15127182,-0.693725586,-0.0546875,-0.58026123,0.423156738,8.125842647,1.62209135,2.59219808,0.602809636,-0.04152775,Mers,7/26/2024 8:30,120
-7.58745575,-2.199140549,-1.23903656,-0.789384842,-0.822408676,-0.299347878,-0.810241699,0.230773926,-0.538330078,0.022521973,7.996306367,1.178598155,2.307928293,-0.357268804,0.443522981,Mers,7/26/2024 8:30,117
-11.91869926,-0.533923149,2.364345551,-0.274846077,0.984333992,0.329175949,-0.727661133,0.180541992,-0.661437988,-0.020568848,12.16267223,1.073690169,2.862748999,-0.294181715,0.129254656,Mers,7/26/2024 8:30,117
-10.0535593,-2.541522026,1.903448105,-0.086288452,0.526256561,0.58484745,-0.733032227,0.045593262,-0.675964355,0.061096191,10.54307846,0.791478493,2.644752838,0.015755686,0.078785602,Mers,7/26/2024 8:30,118
-10.69642162,-2.868340492,-0.583004951,1.191001892,1.854681015,1.879183769,-0.75982666,0.107666016,-0.641052246,0.00970459,11.0896667,2.896490775,2.349261382,-0.15175452,0.180262583,Mers,7/26/2024 8:30,117
-6.65249157,-3.929004669,1.227065086,-1.260245323,0.134226799,0.148076057,-0.668640137,0.27130127,-0.679992676,-0.130187988,7.822941295,1.275994368,-2.787719702,-0.570270298,0.049229387,Mers,7/26/2024 8:30,118
-10.38037777,-2.502017021,2.298502922,1.00564003,-0.780861855,-0.524126053,-0.776428223,0.118591309,-0.618591309,0.022155762,10.92224553,1.376867904,2.290673483,-0.157393596,0.237410665,Mers,7/26/2024 8:30,117
-12.74592113,-0.937357903,1.539518356,-0.914024353,0.863955498,1.245331764,-0.659301758,0.153930664,-0.722412109,-0.140808105,12.87273328,1.769946559,-1.953887382,-0.41852858,-0.091483905,Mers,7/26/2024 8:30,116
-9.929057121,-1.702328682,0.369915009,0.495362282,1.299661636,0.76701355,-0.703430176,0.197387695,-0.670715332,-0.128051758,10.08072097,1.588336849,2.883310245,-0.466171356,0.075426087,Mers,7/26/2024 8:30,116
-12.67050171,-1.734651566,1.419804573,1.00564003,-0.780861855,-0.524126053,-0.81048584,0.202331543,-0.542236328,0.090454102,12.86726368,1.376867904,2.407810135,-0.231953044,0.407855309,Mers,7/26/2024 8:30,117
-7.636538506,-2.020767212,1.734651566,0.856498718,0.919350624,1.035468102,-0.699890137,0.090026855,-0.706787109,-0.049926758,8.087597699,1.62818605,-2.880889416,-0.197881886,-0.00416315,Mers,7/26/2024 8:30,116
-10.42586899,-1.539518356,-0.342380524,-0.177904129,-1.742825508,-1.750282288,-0.887756348,0.217590332,-0.387084961,0.121154785,10.54448128,2.476404393,2.135356474,-0.296881969,0.736516969,Mers,7/26/2024 8:30,116
-14.14298058,-2.403851509,1.292907715,1.029076576,-0.916154861,-0.323849678,-0.881164551,0.249755859,-0.398498535,0.047912598,14.40395821,1.415350466,2.041123283,-0.413662736,0.750931047,Mers,7/26/2024 8:30,117
-8.073493958,-2.104566574,-1.049888611,0.507081032,-0.644504547,-1.10577774,-0.85144043,0.178344727,-0.490600586,0.050354004,8.40908861,1.376685038,2.09115783,-0.257115996,0.541722979,Mers,7/26/2024 8:30,116
-7.844841003,-1.076226234,2.051893234,-0.803233147,0.471925735,0.330241203,-0.763122559,0.180419922,-0.617614746,-0.060119629,8.179856913,0.988411169,2.222071906,-0.357172482,0.244611564,Mers,7/26/2024 8:30,118
-8.419466972,-1.65923214,2.244631767,-0.336633682,0.205601692,0.283368111,-0.741882324,0.157104492,-0.645141602,-0.093566895,8.87010976,0.485686913,2.066183036,-0.361667001,0.160358154,Mers,7/26/2024 8:30,117
-11.55836105,-1.109745979,1.174390793,-0.694573402,1.431758881,1.636295319,-0.784851074,0.156677246,-0.598632813,-0.033996582,11.67075148,2.282504781,2.091233915,-0.290717351,0.293686416,Mers,7/26/2024 8:30,118
-8.201587677,-1.576629639,-0.905035019,-0.211993217,0.189621925,-0.224777222,-0.819396973,0.168151855,-0.545043945,0.057373047,8.400648179,0.362522272,2.241824892,-0.214669554,0.412454558,Mers,7/26/2024 8:30,119
-13.19963646,-0.845178604,1.582614899,-0.341959953,-1.380624771,-0.521994591,-0.751281738,0.152709961,-0.63684082,-0.081481934,13.32101345,1.515103865,2.039821658,-0.339736276,0.186215902,Mers,7/26/2024 8:30,120
-6.263422012,-1.606557846,0.227456093,-0.381376266,-1.349730492,-1.498872757,-0.86114502,0.241394043,-0.447143555,0.015869141,6.470179262,2.052763941,2.036782528,-0.413218474,0.656773268,Mers,7/26/2024 8:30,120
-12.95182896,-1.895068169,1.081014633,0.876738548,-2.046435356,-0.85543251,-0.831604004,0.137329102,-0.538146973,-0.001098633,13.13429669,2.385022626,1.934878067,-0.231655705,0.439600161,Mers,7/26/2024 8:30,120
-8.223135948,-1.478464127,1.986050606,-0.581651688,1.047186852,0.971549988,-0.647949219,0.192687988,-0.713562012,-0.184020996,8.587794711,1.542345087,-1.946429968,-0.537889725,-0.100469077,Mers,7/26/2024 8:30,121
-8.502069473,-1.380298615,-0.75060463,0.152337074,0.973680496,0.570999146,-0.779602051,0.193359375,-0.594482422,-0.037536621,8.646028967,1.138990921,2.236102329,-0.35342853,0.308105686,Mers,7/26/2024 8:30,121
-11.22196484,-1.568249702,2.191958427,0.105463982,1.322032928,1.199523926,-0.716003418,0.189025879,-0.661071777,-0.120849609,11.54108243,1.788225758,2.524751744,-0.445009973,0.106983936,Mers,7/26/2024 8:30,121
-9.119791985,-2.773766518,2.373923302,0.580586433,0.653026581,0.47725296,-0.639160156,0.180908203,-0.727355957,-0.172302246,9.82343618,0.995637841,-1.905087709,-0.502831811,-0.134600213,Mers,7/26/2024 8:30,120
-8.202784538,-1.707117081,-1.047494888,0.12677002,-1.056774139,-1.428563118,-0.859313965,0.240539551,-0.44744873,0.058959961,8.443765063,1.781469843,2.150186145,-0.36894848,0.639156747,Mers,7/26/2024 8:30,121
-8.04356575,-1.350370407,2.87791729,-0.45275116,1.063165665,0.605088234,-0.670654297,0.096008301,-0.731933594,-0.072631836,8.648980179,1.304391281,-2.01809106,-0.237321575,-0.084530619,Mers,7/26/2024 8:30,121
-13.7084198,-1.127702713,-0.251398087,0.014913559,-2.348978996,-1.059969902,-0.835021973,0.208679199,-0.507019043,-0.046020508,13.75702322,2.577103205,1.896669729,-0.406252885,0.52708,Mers,7/26/2024 8:30,121
-12.95063114,-0.717084885,1.917813301,0.110790253,-1.009901047,0.272715569,-0.723510742,0.095825195,-0.679870605,-0.071533203,13.11148601,1.051926037,2.008860257,-0.238173168,0.067231171,Mers,7/26/2024 8:30,121
-9.252674103,-1.098971367,2.402654648,0.086288452,0.680724144,0.20240593,-0.629272461,0.083679199,-0.770690918,-0.055175781,9.622497881,0.715401438,-1.857523209,-0.191529835,-0.199271174,Mers,7/26/2024 8:30,121
-11.96897888,-2.270969391,2.094989777,0.796841621,2.121006012,1.561724663,-0.698669434,0.016723633,-0.714172363,0.039978027,12.36134052,2.751837022,-2.888297263,0.033740223,-0.023293422,Mers,7/26/2024 8:30,121
-10.89155483,-2.014781952,0.808067322,0.79897213,-1.206980705,-0.614675522,-0.796142578,0.143371582,-0.58782959,-0.012023926,11.10577713,1.572572696,2.079695674,-0.2448641,0.319602068,Mers,7/26/2024 8:30,120
-8.098633766,-2.025555611,2.242238045,0.088418961,0.706291199,0.481513977,-0.632751465,0.129638672,-0.754455566,-0.116638184,8.643979168,0.859372376,-1.842953181,-0.346975141,-0.177255704,Mers,7/26/2024 8:30,119
-12.01566696,-2.159635544,1.990839005,0.371788025,-0.144880295,0.191753387,-0.70123291,0.097167969,-0.703613281,-0.061462402,12.36946717,0.442703057,-2.964849141,-0.224651138,0.00236082,Mers,7/26/2024 8:30,119
-6.844034195,-1.755002975,-0.19633007,0.444228172,1.260245323,1.510590553,-0.756713867,0.059020996,-0.648742676,0.055053711,7.068195314,2.016789717,2.383821881,-0.017893583,0.152801781,Mers,7/26/2024 8:30,121
-7.367182732,-1.394664764,0.053871155,-1.007770538,-1.143063545,-1.356122971,-0.819824219,0.213806152,-0.529663086,0.040771484,7.498224677,2.039917949,2.271900226,-0.312434959,0.456980605,Mers,7/26/2024 8:30,120
-7.260637283,-1.713103294,-0.215484619,-0.43357563,0.3653965,-0.056460381,-0.772155762,0.296630859,-0.540710449,-0.153198242,7.46310996,0.569815938,1.909135712,-0.673546928,0.459614086,Mers,7/26/2024 8:30,119
-12.90992832,-1.067846298,-0.345972061,-1.040794373,-2.800664902,-0.852236748,-0.812438965,0.321655273,-0.449829102,-0.184753418,12.95863579,3.106973494,1.542939449,-0.759922795,0.710895466,Mers,7/26/2024 8:30,119
-11.44104099,-0.404631615,1.593389511,-2.77083683,0.583782196,0.363265991,-0.637451172,0.280639648,-0.661315918,-0.278564453,11.55854817,2.854873127,-2.033029124,-0.812816627,-0.043472162,Mers,7/26/2024 8:30,119
-12.39396286,-2.312869072,1.607754707,1.78437233,-0.049003601,0.03195858,-0.784179688,0.333007813,-0.455627441,-0.25793457,12.71001786,1.78533115,1.299234455,-0.859199528,0.694101009,Mers,7/26/2024 8:30,119
-9.128171921,-1.790917397,-1.629303932,0.366461754,1.777979851,1.72151947,-0.68145752,0.281188965,-0.632995605,-0.23638916,9.443809562,2.501826503,2.266343312,-0.751182176,0.118483182,Mers,7/26/2024 8:31,119
-8.315315247,-2.249420166,1.847182274,0.579521179,1.046120644,0.894848824,-0.67364502,0.268737793,-0.637634277,-0.259643555,8.810019358,1.493642399,1.404849054,-0.765895908,0.072165788,Mers,7/26/2024 8:31,119
-8.795367241,-1.756199837,-1.037917137,-0.117181778,0.253540039,-0.256735802,-0.706481934,0.422485352,-0.468200684,-0.321166992,9.028842382,0.379377638,1.293727893,-1.114516252,0.738622983,Mers,7/26/2024 8:31,118
-11.6744833,-1.155237198,0.804475784,-0.095876694,1.489284515,1.448802948,-0.648254395,0.389221191,-0.559997559,-0.338745117,11.75905245,2.079949684,1.524135498,-1.084396716,0.300568211,Mers,7/26/2024 8:31,118
-7.907092094,-1.472478867,-0.136473656,0.014913559,-1.372101784,-1.140932083,-0.773925781,0.378662109,-0.392028809,-0.32244873,8.044185755,1.784548049,1.108566104,-0.995316244,0.928492854,Mers,7/26/2024 8:31,118
-9.633363724,-0.754196167,2.373923302,-1.69701767,0.726531982,0.738250732,-0.564025879,0.418457031,-0.586364746,-0.403686523,9.9501769,1.988147841,-2.322032926,-1.238992479,-0.041918867,Mers,7/26/2024 8:31,118
-8.81452179,-2.262589455,2.518776894,-0.283368111,0.567802429,0.48470974,-0.565429688,0.414611816,-0.621582031,-0.34942627,9.442422489,0.798524024,-2.372003871,-1.127311485,-0.040943066,Mers,7/26/2024 8:31,118
-11.96059895,-2.023161888,0.852361679,0.55288887,-1.672515869,-0.581651688,-0.725769043,0.363464355,-0.485412598,-0.324890137,12.16041248,1.855077928,1.148921725,-1.002824825,0.595882776,Mers,7/26/2024 8:31,118
-11.09865952,-2.13329792,0.348366737,0.259931564,0.859694481,0.960897446,-0.597595215,0.498352051,-0.434509277,-0.453613281,11.30719074,1.315280548,0.856058979,-1.428014353,1.262282663,Mers,7/26/2024 8:31,118
-12.6597271,1.063057899,1.027143478,-2.205163956,-0.549693108,-0.25886631,-0.565673828,0.510559082,-0.45489502,-0.460876465,12.74573678,2.28733958,0.850133476,-1.492298639,1.304331604,Mers,7/26/2024 8:31,118
-12.84288883,-1.241431236,2.960519791,-0.142749786,-0.721205711,0.077766418,-0.620239258,0.36138916,-0.606140137,-0.342407227,13.23803696,0.739298853,2.851704346,-1.041948611,0.060792713,Mers,7/26/2024 8:31,118
-8.467351913,-1.587403297,-1.428184509,-0.454881668,-0.054329872,0.047938347,-0.623046875,0.496765137,-0.365722656,-0.480957031,8.732445742,0.460616057,0.791676523,-1.328583899,1.65258597,Mers,7/26/2024 8:31,117
-11.80497074,-3.0682621,1.404241562,1.126018524,-0.721205711,-0.295086861,-0.547180176,0.522766113,-0.416992188,-0.503417969,12.27776286,1.369354465,0.743376941,-1.443724458,2.019543524,Mers,7/26/2024 8:31,117
-6.33405304,-2.293714523,-0.171190262,0.07563591,-0.991790771,-1.389146805,-0.645996094,0.496154785,-0.311828613,-0.489135742,6.738743231,1.708536968,0.770703423,-1.240916093,1.817901816,Mers,7/26/2024 8:31,117
-10.89035797,-2.705530167,1.964502335,0.607218742,0.777666092,-0.011717796,-0.364929199,0.631896973,-0.415100098,-0.543334961,11.39206125,0.98672005,-2.300361321,-1.148797571,2.973888505,Mers,7/26/2024 8:31,117
-7.394717216,-1.662823677,2.118932724,-1.670385361,0.204536438,0.369657516,-0.268371582,0.672607422,-0.290588379,-0.625366211,7.869987368,1.722982614,-2.214117071,-0.810259018,3.070281735,Mers,7/26/2024 8:31,117
-9.778217316,-2.050695419,-1.039114952,-0.061786652,0.796841621,0.845845222,-0.366455078,0.622497559,-0.231567383,-0.651611328,10.04483178,1.163713151,0.556512633,-0.860269923,3.073799456,Mers,7/26/2024 8:31,117
-14.54162693,-2.21470356,1.78852272,1.001379013,-0.934265137,-0.24608326,-0.359436035,0.604248047,-0.249755859,-0.66583252,14.81764621,1.391462628,0.686887617,-0.874102955,-3.123323016,Mers,7/26/2024 8:31,117
-10.12299347,-1.8352108,2.278151512,-0.251409531,1.115365028,1.162238121,-0.331420898,0.647338867,-0.262634277,-0.634155273,10.53721831,1.630350682,0.28980994,-0.866681817,3.052576812,Mers,7/26/2024 8:31,117
-11.90193939,-2.312869072,-0.852361679,-0.425052643,-2.144442558,-1.228286743,-0.474731445,0.543518066,-0.14263916,-0.677429199,12.15450719,2.507586879,0.646613434,-0.788513324,3.072666569,Mers,7/26/2024 8:31,117
-7.686818123,-1.790917397,-0.751801491,-0.483644485,-0.862890244,-0.558215141,-0.388183594,0.582214355,-0.096557617,-0.707824707,7.92841494,1.1358238,0.606781227,-0.629454456,-3.114000786,Mers,7/26/2024 8:31,117
-7.883149147,-1.277344704,2.19435215,-0.132096291,0.972615242,0.444228172,-0.278076172,0.695068359,-0.322814941,-0.579101563,8.281958182,1.077389673,-2.198331235,-0.864004508,2.950716361,Mers,7/26/2024 8:31,117
-8.657696724,-1.668808937,-0.775744438,0.400550842,0.845845222,0.087353706,-0.45324707,0.577331543,-0.239929199,-0.635375977,8.851125085,0.939960524,0.630638149,-0.975956308,2.992626766,Mers,7/26/2024 8:31,117
-7.334859848,-1.472478867,-0.493220329,-0.838388443,-1.398734093,-1.054643631,-0.42767334,0.548339844,-0.104675293,-0.710998535,7.497441517,1.942067309,0.652157588,-0.666029104,-3.093886951,Mers,7/26/2024 8:31,117
-11.69004536,-1.734651566,1.25938797,0.976877213,1.944166183,1.169695854,-0.330200195,0.651550293,-0.326721191,-0.59979248,11.88495834,2.470275213,-2.01354102,-0.965289792,3.023722088,Mers,7/26/2024 8:31,117
-9.028809547,-1.160025597,2.199140549,0.213058472,0.340894699,0.087353706,-0.296508789,0.676757813,-0.339477539,-0.582092285,9.364896175,0.411380333,-2.233363609,-0.921556793,2.986266495,Mers,7/26/2024 8:31,117
-11.86243343,-3.065868378,2.156044006,2.229665756,0.618937492,0.821343422,-0.303955078,0.653198242,-0.307983398,-0.621337891,12.44047433,2.455422167,-2.090547612,-0.894361223,3.080545028,Mers,7/26/2024 8:31,118
-12.44903088,-1.664020538,-0.349563599,0.944917679,1.711931229,1.352926254,-0.345581055,0.635070801,-0.277893066,-0.632507324,12.56461416,2.377811473,0.432983198,-0.911585227,3.06742906,Mers,7/26/2024 8:31,116
-11.26147079,-1.950136185,0.10774231,-0.206666946,-2.268016815,-0.825604439,-0.383728027,0.573486328,-0.11932373,-0.713867188,11.42958284,2.422443846,0.652010826,-0.65667677,-3.076108384,Mers,7/26/2024 8:31,118
-9.863214493,-2.51279068,2.837215424,1.520177841,0.793645859,0.408008575,-0.230224609,0.707214355,-0.274230957,-0.609619141,10.56631007,1.762749391,-2.188985789,-0.720804355,2.99812227,Mers,7/26/2024 8:31,118
-10.0535593,1.563461304,1.629303932,-1.007770538,0.408008575,-0.469795227,-0.292236328,0.668334961,-0.214355469,-0.649597168,10.30403305,1.184390143,0.157151161,-0.733014488,3.055467791,Mers,7/26/2024 8:31,117
-12.53642178,-2.694755554,2.292517662,0.981138229,0.260996819,0.335568428,-0.404968262,0.58203125,-0.176574707,-0.682678223,13.02609749,1.069279072,0.64273696,-0.793048701,3.133085993,Mers,7/26/2024 8:31,114
-11.80736542,-1.422198296,0.82722187,-1.08127594,-1.233613014,-1.211241722,-0.450683594,0.554992676,-0.122497559,-0.688354492,11.9214438,2.039133452,0.630951313,-0.732722203,3.107451642,Mers,7/26/2024 8:31,114
-11.49970055,0.029928207,1.005595207,-1.557463646,0.401616096,0.213058472,-0.24822998,0.694091797,-0.258789063,-0.624206543,11.54362292,1.622461836,-2.039503161,-0.73106711,3.024535773,Mers,7/26/2024 8:31,115
-7.770618439,-1.605360985,1.884293556,0.067112923,0.534778595,0.623198509,-0.293029785,0.673095703,-0.270507813,-0.62286377,8.155382089,0.823934871,-1.554025066,-0.820450668,3.027767603,Mers,7/26/2024 8:31,115
-7.132543564,-1.388678551,-0.238229752,-0.395224571,0.245018005,-0.080962181,-0.458251953,0.563476563,-0.191101074,-0.66027832,7.270375453,0.472007584,0.642860129,-0.876944178,3.045179121,Mers,7/26/2024 8:31,115
-11.38836765,-0.834403992,-0.105347633,0.644504547,1.737499237,1.521243095,-0.252868652,0.672546387,-0.176025391,-0.672851563,11.41938028,2.397596768,0.312048174,-0.615062679,3.101698798,Mers,7/26/2024 8:31,115
-13.32413864,-2.504410744,1.601769447,0.820278168,-0.67220211,0.128900528,-0.439575195,0.551513672,-0.119750977,-0.698791504,13.6517548,1.068329208,0.645216273,-0.710516517,-3.133629382,Mers,7/26/2024 8:31,114
-9.586675644,-2.037527084,2.571450233,0.488970757,0.3653965,0.180034637,-0.287963867,0.674072266,-0.285522461,-0.617431641,10.13253289,0.636411403,-1.958633835,-0.834257735,3.030500849,Mers,7/26/2024 8:31,115
-8.409889221,-1.611346245,-1.194742203,-0.305739403,0.025567055,-0.387767792,-0.327575684,0.636230469,-0.254272461,-0.65057373,8.645812996,0.494463464,0.536896586,-0.844551312,3.105013224,Mers,7/26/2024 8:31,114
-7.1409235,-1.816057205,-0.296889305,-0.106529236,-0.944917679,-1.055708885,-0.421447754,0.587097168,-0.194152832,-0.663330078,7.374211515,1.420823405,0.617667626,-0.851753291,3.06923262,Mers,7/26/2024 8:31,114
-9.614209175,-1.772959709,-0.020350456,0.546496391,1.355056763,0.856498718,-0.419616699,0.591003418,-0.245361328,-0.643798828,9.776339721,1.693643171,0.626190281,-0.947427572,3.050607841,Mers,7/26/2024 8:31,116
-7.54076767,-1.968092918,-0.533923149,-0.859694481,-1.211241722,-0.630655289,-0.453796387,0.561889648,-0.092895508,-0.68536377,7.811634958,1.613662667,0.596261456,-0.690991313,3.078555249,Mers,7/26/2024 8:31,116
-7.292960167,-1.51078701,2.5534935,-1.332686424,0.250344276,0.533713341,-0.238342285,0.682128906,-0.184204102,-0.666320801,7.873377575,1.457249221,0.023185534,-0.607283011,3.087857932,Mers,7/26/2024 8:31,115
-10.74550438,-0.598567963,1.873519897,-0.361135483,0.759555817,0.844779968,-0.267456055,0.665039063,-0.211791992,-0.664306641,10.92402054,1.192055817,0.336171191,-0.690765134,3.105671398,Mers,7/26/2024 8:31,116
-11.85644817,-1.55747509,0.896655083,0.260996819,-1.572378159,-0.457012177,-0.483703613,0.538635254,-0.248291016,-0.643676758,11.99187567,1.658117168,0.695451928,-0.998607779,3.03593733,Mers,7/26/2024 8:31,116
-8.991698265,-1.750214577,1.816057205,0.705225945,0.84264946,0.804298401,-0.326293945,0.636962891,-0.352661133,-0.602905273,9.338733989,1.361725987,-2.318558645,-0.998975091,3.096503187,Mers,7/26/2024 8:31,115
-14.03164673,-2.349980354,1.063057899,1.759870529,-0.039415359,0.080962181,-0.45513916,0.560913086,-0.404785156,-0.56072998,14.26673087,1.762172728,0.652638123,-1.303684971,2.97632201,Mers,7/26/2024 8:31,116
-12.0970726,-0.822432518,0.253792763,-0.095876694,0.69137764,0.601892471,-0.318664551,0.668457031,-0.25567627,-0.621520996,12.12765317,0.921666929,-0.422501859,-0.838802739,2.997850034,Mers,7/26/2024 8:31,115
-6.348419189,-2.270969391,2.789329529,-0.88632679,0.279107094,0.483644485,-0.303588867,0.659851074,-0.233825684,-0.64630127,7.296580528,1.047562856,0.232415757,-0.779453153,3.06404914,Mers,7/26/2024 8:31,115
-10.76944733,-1.418607712,-0.282524109,-0.128900528,1.841897964,1.673581123,-0.376037598,0.629150391,-0.303466797,-0.608825684,10.86615219,2.492002655,0.307622205,-1.00225117,3.003994949,Mers,7/26/2024 8:31,116
-12.58909607,-1.650852203,0.748209953,0.504950523,-1.499938011,-0.439967155,-0.430969238,0.560913086,-0.250244141,-0.661071777,12.71890211,1.642668611,0.704086037,-0.951576037,3.140216093,Mers,7/26/2024 8:31,117
-6.074274063,-2.375120163,1.30607605,-0.304674149,0.3653965,0.518798828,-0.20135498,0.69708252,-0.172058105,-0.666320801,6.651604004,0.703912753,-0.82904907,-0.535200906,3.08022171,Mers,7/26/2024 8:31,117
-10.6210022,-2.427794456,2.379908562,0.320653915,0.148076057,-0.034089088,-0.271057129,0.6796875,-0.278259277,-0.622192383,11.15185359,0.354834494,-2.050114699,-0.796237828,3.039926406,Mers,7/26/2024 8:31,117
-8.946207047,-1.375510216,-0.428574562,-1.318837166,-1.864269257,-1.702343941,-0.443359375,0.549377441,-0.043212891,-0.706970215,9.061474772,2.84829883,0.595569672,-0.580262789,-3.137058335,Mers,7/26/2024 8:31,117
-8.202784538,-1.47008419,-2.044710159,-1.015227318,-0.334503174,-0.964093208,-0.514831543,0.543518066,-0.116882324,-0.652587891,8.58065623,1.439463301,0.611255426,-0.792616525,2.939096731,Mers,7/26/2024 8:31,116
-12.21080017,-0.98763752,1.429381371,-0.356874466,0.03195858,-0.265258789,-0.293457031,0.660888672,-0.112915039,-0.68145752,12.33378287,0.445805967,0.382805769,-0.572551571,3.086843737,Mers,7/26/2024 8:31,117
-9.648926735,-2.050695419,0.700325012,0.067112923,-1.434954643,-0.621068001,-0.399108887,0.576782227,-0.177856445,-0.690185547,9.889266604,1.565031768,0.665465414,-0.783701047,-3.117173971,Mers,7/26/2024 8:31,117
-11.56195164,-1.94295311,-0.043096542,-0.479383469,1.240005493,0.812821388,-0.305114746,0.634338379,-0.177978516,-0.687683105,11.72414815,1.55823642,0.597390997,-0.683973354,-3.129589653,Mers,7/26/2024 8:31,117
-14.66852379,-2.618139267,1.575431824,1.033337593,-0.308935165,-0.317458153,-0.345397949,0.620300293,-0.284179688,-0.644348145,14.98339844,1.124280746,0.640168523,-0.918549774,3.128137705,Mers,7/26/2024 8:31,116
-7.087052345,-2.452934265,-0.937357903,-0.145945549,-0.615740776,0.377114296,-0.312744141,0.612731934,-0.106567383,-0.717895508,7.557899,0.736649169,0.618059093,-0.566005923,-3.075937256,Mers,7/26/2024 8:32,117
-6.171242714,-2.75820446,2.104566574,-0.536909103,0.3898983,0.907632828,-0.225463867,0.696899414,-0.211425781,-0.647155762,7.07962774,1.124317313,-1.617922375,-0.628462968,3.051370813,Mers,7/26/2024 8:32,118
-12.39875126,-0.476460457,0.963695526,-0.693508148,-0.13955307,-0.117181778,-0.288391113,0.661560059,-0.151733398,-0.675415039,12.44527044,0.717049636,0.394616964,-0.626782792,3.090055356,Mers,7/26/2024 8:32,118
-9.91349411,-1.990839005,-0.013168335,-0.752099037,-1.28794384,-0.776600838,-0.542785645,0.54876709,-0.148925781,-0.618103027,10.11142813,1.681535357,0.608170564,-0.894392205,2.786611549,Mers,7/26/2024 8:32,118
-7.53478241,-2.164423943,-1.204319954,-0.042611122,1.286878586,0.940656662,-0.395629883,0.600708008,-0.269775391,-0.640197754,7.931460365,1.59458683,0.628979678,-0.962696836,3.079162981,Mers,7/26/2024 8:32,118
-10.09306431,-2.652855873,1.950136185,1.744956017,1.023750305,0.990725517,-0.29498291,0.665100098,-0.331054688,-0.600830078,10.61652592,2.252659148,-2.261588939,-0.911137807,3.044513903,Mers,7/26/2024 8:32,117
-9.341261864,-1.726271629,-1.088197708,-0.844779968,0.59230423,0.81069088,-0.696289063,0.399719238,-0.524719238,-0.28302002,9.561556421,1.312134596,1.763709893,-1.022957918,0.52045798,Mers,7/26/2024 8:32,117
-7.722732544,-0.019153595,2.311672211,0.090549469,0.259931564,-0.506015778,-0.43347168,0.597595215,-0.413208008,-0.53314209,8.061314609,0.576034367,-2.087466361,-1.282319665,2.829406774,Mers,7/26/2024 8:32,117
-10.64973354,-3.419023514,3.154456139,2.750596046,1.411518097,0.480448723,-0.580932617,0.44329834,-0.54888916,-0.405822754,11.62140868,3.128736634,2.85773424,-1.288996,0.240142714,Mers,7/26/2024 8:32,117
-14.60866642,-3.61774826,2.14766407,0.360070229,-1.40725708,-0.987529755,-0.631103516,0.476989746,-0.30859375,-0.528198242,15.20242408,1.756484579,0.760909458,-1.189161929,1.997551654,Mers,7/26/2024 8:32,118
-8.755862236,-2.009993553,1.169602394,1.920729637,-0.204536438,-0.494297028,-0.52154541,0.502075195,-0.424255371,-0.544006348,9.059424228,1.993832251,0.765291521,-1.399152078,2.707161651,Mers,7/26/2024 8:32,117
-12.1700983,-2.606167793,1.118125916,1.362514496,-1.214438438,-0.054329872,-0.807373047,0.331970215,-0.446716309,-0.196105957,12.49614376,1.825995128,1.518100528,-0.791282069,0.725246199,Mers,7/26/2024 8:32,118
-6.997267723,1.358750343,1.844788551,-2.531145096,0.241822243,-0.013848305,-0.704650879,0.33782959,-0.555541992,-0.284057617,7.36282574,2.542708255,1.410578199,-0.913612441,0.358390362,Mers,7/26/2024 8:32,118
-8.15130806,-3.070656776,1.369524956,0.852236748,0.909763336,1.121757507,-0.670654297,0.295410156,-0.62677002,-0.264770508,8.817502749,1.676996335,1.935072737,-0.815599454,0.107888871,Mers,7/26/2024 8:32,118
-6.899102211,-1.902251244,-0.300480843,-0.352612495,-1.212306976,-0.609349251,-0.729492188,0.309387207,-0.571777344,-0.212524414,7.162852773,1.401902381,1.84629246,-0.767619652,0.349119541,Mers,7/26/2024 8:32,117
-13.76827621,-2.381105423,1.150448799,1.297531128,0.31426239,0.384572029,-0.751708984,0.21862793,-0.59552002,-0.180175781,14.01993671,1.389332042,1.517111125,-0.574345863,0.26977606,Mers,7/26/2024 8:32,118
-7.655693054,-1.556278229,-0.361535072,-0.831995964,-1.358253479,-1.212306976,-0.850280762,0.270385742,-0.449645996,-0.041503906,7.820635887,2.001688787,1.937431029,-0.520289925,0.673446959,Mers,7/26/2024 8:32,119
-15.74235535,-3.635705948,0.993623734,1.820591927,-0.122509003,0.140618324,-0.703430176,0.227844238,-0.651306152,-0.170532227,16.18726036,1.830119377,2.442960158,-0.573627398,0.110965539,Mers,7/26/2024 8:32,119
-9.494496346,-1.248613358,-1.632894516,-0.498558044,0.594434738,0.881000519,-0.796325684,0.230773926,-0.547119141,-0.115112305,9.714465538,1.173914262,1.801312516,-0.516112448,0.429553036,Mers,7/26/2024 8:32,119
-10.85085297,-2.156044006,1.795705795,0.134226799,1.326293945,0.605088234,-0.753479004,0.288024902,-0.564147949,-0.176330566,11.20776941,1.463968658,1.862194182,-0.685415189,0.382647025,Mers,7/26/2024 8:32,119
-11.88039017,-1.824437141,1.166010857,0.904437065,-1.594749451,-0.468729973,-0.814331055,0.195617676,-0.541564941,-0.073242188,12.07608475,1.89233718,1.839024402,-0.409254931,0.440896853,Mers,7/26/2024 8:32,119
-8.91149044,-1.738243103,-1.025946617,-0.593369484,0.525191307,0.662613869,-0.758911133,0.288146973,-0.551513672,-0.191894531,9.137216064,1.032942589,1.68803659,-0.706296621,0.412606,Mers,7/26/2024 8:32,119
-7.271411896,0.487234116,2.035133362,-2.65898037,-0.099072456,0.284433365,-0.655944824,0.362792969,-0.582336426,-0.314697266,7.566544512,2.675984734,1.734811979,-1.001839975,0.22696713,Mers,7/26/2024 8:32,119
-7.052335739,-1.19234848,-0.089784622,-0.780861855,-1.179283142,-0.94278717,-0.65032959,0.352783203,-0.658203125,-0.139221191,7.15298508,1.69979458,-2.754882556,-0.697263592,0.124405266,Mers,7/26/2024 8:32,119
-6.890722275,-3.565074921,1.740636826,1.344404221,0.963027954,1.282616615,-0.6640625,0.229309082,-0.669067383,-0.242492676,7.951203005,2.092833231,-0.030727289,-0.680316385,-0.016602319,Mers,7/26/2024 8:32,119
-10.55515957,-2.326037407,1.866336823,1.366775513,1.588356972,1.496741295,-0.706848145,0.31072998,-0.594970703,-0.223205566,10.96836618,2.575109255,2.072110503,-0.782253062,0.267333207,Mers,7/26/2024 8:32,119
-11.91750145,-1.862745285,1.298893929,0.466599464,-1.547876358,-0.707356453,-0.613586426,0.284729004,-0.727294922,-0.116027832,12.1319325,1.764649946,-2.4609681,-0.544726987,-0.102299248,Mers,7/26/2024 8:32,118
-15.10308456,-2.82524395,0.713493347,2.534340858,0.330241203,0.61680603,-0.506652832,0.190734863,-0.836486816,-0.084838867,15.38162018,2.629142924,-2.029410733,-0.34182377,-0.469702322,Mers,7/26/2024 8:32,118
-11.69363689,-3.500429153,2.680390358,1.657601357,1.666124344,0.895914078,-0.484130859,0.341247559,-0.763549805,-0.257263184,12.49714529,2.515208664,-2.169270775,-0.808545388,-0.486812306,Mers,7/26/2024 8:32,118
-7.701184273,0,2.190760612,-0.558215141,0.338764191,0.411204338,-0.502990723,0.315734863,-0.752990723,-0.28338623,8.006726626,0.771656872,-2.089748151,-0.839632562,-0.470994932,Mers,7/26/2024 8:32,118
-7.883149147,-2.334417343,1.3204422,0.665810585,0.935330391,0.999248505,-0.460693359,0.286437988,-0.805664063,-0.237915039,8.326890921,1.522052644,-2.05362495,-0.704009783,-0.596379954,Mers,7/26/2024 8:32,118
-10.49889374,1.491632462,1.491632462,-0.121443748,0.795776367,1.13773632,-0.480712891,0.278198242,-0.791809082,-0.254150391,10.70872096,1.393718962,-2.018378745,-0.734133541,-0.553592125,Mers,7/26/2024 8:32,121
-9.140143394,-1.841197014,-1.155237198,-0.332371712,0.939591408,0.638112068,-0.52947998,0.317260742,-0.760253906,-0.202575684,9.395041282,1.183422993,-2.214149329,-0.699694938,-0.338328922,Mers,7/26/2024 8:32,118
-6.15927124,-1.769368172,0.266961098,0.306804657,-0.793645859,-0.651961327,-0.59576416,0.350280762,-0.668395996,-0.274963379,6.413934375,1.071940492,-2.362369967,-0.902596522,-0.073924862,Mers,7/26/2024 8:32,119
-13.68088531,-2.55947876,1.324033737,1.523374557,0.372853279,0.189621925,-0.497436523,0.227600098,-0.823486328,-0.15057373,13.98108078,1.579761401,-2.025914707,-0.494309613,-0.491220317,Mers,7/26/2024 8:32,121
-11.80856228,-1.884293556,0.918204308,0.831995964,-1.823787689,-0.481513977,-0.609436035,0.296508789,-0.708435059,-0.196960449,11.99315657,2.061619395,-2.357444247,-0.695114863,-0.108515809,Mers,7/26/2024 8:32,120
-11.77983093,-3.085022926,1.545503616,2.211556435,0.836257935,0.901240349,-0.664489746,0.28729248,-0.66015625,-0.200439453,12.27478573,2.530324755,-2.827502437,-0.702920331,0.062941851,Mers,7/26/2024 8:32,122
-9.435835838,-1.655640602,-1.441352844,-1.104712486,-0.273780823,-0.280172348,-0.605285645,0.318664551,-0.690490723,-0.235168457,9.687808926,1.172110131,-2.352132672,-0.790250314,-0.09326,Mers,7/26/2024 8:32,120
-12.12819767,-2.436174393,0.885881424,1.907946587,1.406191826,1.366775513,-0.55657959,0.363952637,-0.690734863,-0.283935547,12.4021333,2.736002729,-2.276466979,-0.922950425,-0.202562247,Mers,7/26/2024 8:32,120
-12.46579075,-1.839999199,1.534729958,1.141998291,-1.021618843,-0.43357563,-0.721618652,0.34942627,-0.56048584,-0.207336426,12.69397228,1.592436179,2.19817533,-0.828211668,0.406361593,Mers,7/26/2024 8:32,121
-7.413870811,-1.186362267,0.87989521,-0.741446495,-1.506329536,-1.177152634,-0.654785156,0.362548828,-0.619018555,-0.238037109,7.559573494,2.050477969,-2.931420998,-0.878029624,0.186369276,Mers,7/26/2024 8:32,121
-7.516824722,-1.655640602,-0.809264183,-0.055395126,-1.085536957,-1.846158981,-0.773986816,0.368164063,-0.465515137,-0.22064209,7.739425574,2.142373004,1.574937568,-0.887241765,0.699066948,Mers,7/26/2024 8:32,123
-8.480520248,-1.355158806,-0.357943535,-0.969419479,-0.434640884,-0.613610268,-0.716064453,0.394836426,-0.516235352,-0.254699707,8.595568779,1.226867713,1.840427986,-0.976292747,0.559790163,Mers,7/26/2024 8:32,124
-11.62061214,-2.457722664,0.150838852,1.733237267,1.441346169,1.120692253,-0.66986084,0.319458008,-0.639831543,-0.199645996,11.87862701,2.517447383,-2.981122931,-0.752498055,0.138241823,Mers,7/26/2024 8:32,124
-7.580273628,-2.89228344,2.219491959,-0.070308685,0.290825844,0.651961327,-0.56463623,0.251464844,-0.756774902,-0.212646484,8.411420589,0.717339916,-2.047672227,-0.650800362,-0.305575725,Mers,7/26/2024 8:32,123
-10.49769688,2.033935547,0.930174828,-2.437398911,-0.383506775,-0.878869057,-0.545837402,0.3515625,-0.686767578,-0.326782227,10.73330139,2.619236858,-2.155699744,-0.983855513,-0.293017987,Mers,7/26/2024 8:32,123
-10.97894573,-1.822042465,2.706727028,0.095876694,-0.370722771,-0.072440147,-0.608886719,0.237670898,-0.729797363,-0.200500488,11.45353479,0.389711802,-2.093826041,-0.621282844,-0.181501029,Mers,7/26/2024 8:32,123
-8.77381897,-1.968092918,2.004007339,-0.219450951,0.763817787,0.243952751,-0.546569824,0.230529785,-0.789123535,-0.159423828,9.212455398,0.831317795,-2.065118549,-0.527773949,-0.359153292,Mers,7/26/2024 8:32,124
-12.03841305,-1.573038101,1.126505852,0.08309269,-1.652275085,-0.589108467,-0.732849121,0.275146484,-0.588439941,-0.202331543,12.19290175,1.756122472,1.743705488,-0.696323817,0.291775104,Mers,7/26/2024 8:32,123
-13.53962326,-0.035913467,0.480051994,-1.278355598,0.784057617,0.311066628,-0.594421387,0.2890625,-0.717346191,-0.220336914,13.54817839,1.531568421,-2.232167693,-0.720506739,-0.172332862,Mers,7/26/2024 8:32,125
-9.741106033,-1.302484512,0.83919239,-0.297217369,1.462652206,1.130279541,-0.680053711,0.261901855,-0.660705566,-0.180114746,9.86356206,1.872223673,-3.04056895,-0.636295874,0.077001207,Mers,7/26/2024 8:32,125
-7.227117538,-2.162029266,1.251008034,-0.853302002,0.328110695,0.553954124,-0.642089844,0.382324219,-0.56451416,-0.350646973,7.646608369,1.06894626,1.311640105,-1.090511499,0.250198639,Mers,7/26/2024 8:32,127
-9.941027641,-1.34677887,-1.327625275,-1.176087379,-1.220829964,-1.474370956,-0.857727051,0.320678711,-0.366577148,-0.164611816,10.1193099,2.246636829,1.481084402,-0.735280847,0.912817482,Mers,7/26/2024 8:32,127
-13.8927784,-2.176395416,0.308860779,1.054643631,-0.384572029,-0.110790253,-0.776550293,0.232055664,-0.545410156,-0.213684082,14.06560996,1.128026291,1.311931168,-0.635396557,0.397189447,Mers,7/26/2024 8:32,127
-10.78022099,-1.97767067,1.641274452,-0.227972984,1.313510895,1.102581978,-0.616333008,0.384216309,-0.594604492,-0.344909668,11.08233404,1.730020107,-3.067618497,-1.08388031,0.116934897,Mers,7/26/2024 8:32,127
-7.893922806,-1.994430542,-1.87591362,0.399485588,-0.249279022,-0.316392899,-0.754882813,0.309570313,-0.547607422,-0.18560791,8.35528709,0.567303475,1.845661702,-0.735097061,0.435656496,Mers,7/26/2024 8:32,126
-11.88278484,-1.97767067,1.766974449,1.021618843,-0.996051788,-0.58484745,-0.759155273,0.294494629,-0.504516602,-0.287109375,12.17513678,1.542034618,1.158723262,-0.828380132,0.49996102,Mers,7/26/2024 8:32,120
-9.5483675,-1.19234848,0.160415649,-0.272715569,1.056774139,0.811756134,-0.755126953,0.357543945,-0.477233887,-0.272460938,9.623863569,1.360181379,1.332293448,-0.927357428,0.645436374,Mers,7/26/2024 8:32,124
-13.03323364,-0.826024055,2.050695419,0.039415359,1.280486107,1.581965446,-0.65435791,0.426757813,-0.506408691,-0.364929199,13.21941173,2.035635752,1.217102746,-1.189307411,0.561069763,Mers,7/26/2024 8:32,126
-9.499284744,-1.201925278,0.110136032,-0.642374039,-1.781175613,-1.963341713,-0.833007813,0.365783691,-0.352172852,-0.219665527,9.575654806,2.727625644,1.350762392,-0.869678856,0.994434406,Mers,7/26/2024 8:32,120
-7.806531906,-1.87591362,-1.120519638,-0.582716942,-1.104712486,-1.172891617,-0.847961426,0.379699707,-0.319702148,-0.185974121,8.106574897,1.713366119,1.428602407,-0.867715847,1.066435634,Mers,7/26/2024 8:33,121
-10.67966175,-2.479270935,2.262589455,1.210176468,0.359004974,0.077766418,-0.646972656,0.339111328,-0.617248535,-0.292175293,11.19469832,1.264697304,2.946547029,-0.92643081,0.111562784,Mers,7/26/2024 8:33,121
-8.147716522,-2.165620804,1.59817791,0.154467583,0.922546387,0.129965782,-0.592712402,0.373168945,-0.660095215,-0.27142334,8.58075583,0.944374489,-2.421365315,-0.928453145,-0.032394261,Mers,7/26/2024 8:33,121
-10.23672104,-0.678776741,0.223864555,0.268454552,1.451999664,0.639177322,-0.726806641,0.332763672,-0.53729248,-0.269042969,10.2616427,1.609011659,1.405777178,-0.883271549,0.432459317,Mers,7/26/2024 8:33,121
-7.322888374,-2.280546188,-1.594586372,-0.177904129,-0.451684952,-0.599761963,-0.792785645,0.351257324,-0.443481445,-0.226745605,7.833791595,0.771611034,1.438287266,-0.86033098,0.747182515,Mers,7/26/2024 8:33,121
-13.0631628,-0.511177063,-0.950526237,-1.036533356,0.992856026,0.322784424,-0.592407227,0.388671875,-0.639892578,-0.297546387,13.10767044,1.471174453,-2.445536104,-0.9996827,0.007605833,Mers,7/26/2024 8:33,121
-7.489291191,-1.720286369,2.104566574,0.488970757,-0.350481987,-0.008522034,-0.640380859,0.322021484,-0.650695801,-0.250610352,7.967312483,0.60166656,-2.636806212,-0.830954193,0.041018012,Mers,7/26/2024 8:33,120
-9.820116997,-2.336812019,-0.098164558,0.34622097,1.153716087,0.79151535,-0.648376465,0.364929199,-0.594116211,-0.305664063,10.09480186,1.441327971,2.502093627,-0.990723903,0.19339523,Mers,7/26/2024 8:33,127
-12.71000671,-1.789719582,1.183968544,-0.374983788,-1.874921799,-0.193883896,-0.750854492,0.337768555,-0.484130859,-0.296142578,12.8898855,1.92185732,1.200434927,-0.917317414,0.59391929,Mers,7/26/2024 8:33,120
-8.2039814,-1.9226017,-0.445334435,-0.265258789,-1.462652206,-1.237874985,-0.804992676,0.331420898,-0.43548584,-0.229125977,8.438011073,1.934437432,1.373337608,-0.822935046,0.753909867,Mers,7/26/2024 8:33,121
-11.56195164,-1.453324318,1.964502335,-0.182165146,0.850106239,0.132096291,-0.594604492,0.349914551,-0.680175781,-0.247619629,11.81736632,0.879382845,-2.388531648,-0.852565742,-0.075236378,Mers,7/26/2024 8:33,122
-12.37839985,-0.551879883,0.866726875,-1.141998291,0.283368111,-0.152337074,-0.639465332,0.360229492,-0.611755371,-0.295043945,12.42097298,1.186450238,-3.015772687,-0.964383965,0.135020076,Mers,7/26/2024 8:33,125
-11.48294067,-1.256993294,2.115341187,0.152337074,-0.204536438,0.299347878,-0.782714844,0.35748291,-0.439453125,-0.257751465,11.74362069,0.393256774,1.326463208,-0.904560706,0.762285677,Mers,7/26/2024 8:33,127
-8.383552551,-1.807677269,2.478074074,-0.237560272,0.374983788,0.259931564,-0.611450195,0.352966309,-0.63494873,-0.313659668,8.927065677,0.514404648,-2.432339375,-0.979032841,-0.005557133,Mers,7/26/2024 8:33,126
-11.75349426,-1.358750343,-0.87989521,-0.756360054,-1.690626144,-1.23254776,-0.790100098,0.345214844,-0.455078125,-0.222473145,11.86444459,2.22474072,1.463705934,-0.845034315,0.710757169,Mers,7/26/2024 8:33,128
-6.620168686,-2.408639908,-1.344385147,0.51666832,-0.368592262,-0.557149887,-0.712463379,0.327941895,-0.563964844,-0.258422852,7.171858271,0.844524958,1.581963957,-0.861431865,0.348403159,Mers,7/26/2024 8:33,129
-10.58149624,-0.372309685,-0.137670517,-0.576325417,1.166500092,1.131344795,-0.676635742,0.290161133,-0.626708984,-0.255371094,10.58893906,1.724185169,1.945168328,-0.793416066,0.119504594,Mers,7/26/2024 8:33,123
-13.57673454,-2.597787857,0.471672058,0.457012177,-1.402996063,-0.42185688,-0.715026855,0.326782227,-0.529663086,-0.318481445,13.83107722,1.53467303,1.11926969,-0.935156273,0.405874964,Mers,7/26/2024 8:33,126
-6.566297531,-1.917813301,-0.881093025,0.062851906,-1.089797974,-1.902620316,-0.799072266,0.398925781,-0.36932373,-0.256835938,6.89714405,2.193530044,1.294844678,-0.974199252,0.99632494,Mers,7/26/2024 8:33,121
-9.865608215,-2.587013245,2.126115799,0.764883041,0.486840248,0.351547241,-0.558959961,0.425964355,-0.594421387,-0.390869141,10.41840829,0.972442778,-2.355327005,-1.225207034,-0.036876481,Mers,7/26/2024 8:33,130
-8.175250053,-1.541912079,-1.298893929,-0.89910984,-0.781927109,-0.812821388,-0.76550293,0.409179688,-0.422607422,-0.260681152,8.420174091,1.442389378,1.399541412,-1.009917718,0.863079693,Mers,7/26/2024 8:33,120
-8.182433128,-1.96330452,1.9226017,-0.120378494,0.581651688,0.27804184,-0.517578125,0.493164063,-0.568115234,-0.407653809,8.631522104,0.655833007,-2.379983426,-1.340902261,0.118400593,Mers,7/26/2024 8:33,130
-7.486896515,-2.011190414,-0.173583984,0.206666946,-0.916154861,-0.846910477,-0.49798584,0.559082031,-0.207397461,-0.629638672,7.754265775,1.264637621,0.631126706,-0.957926811,2.902841242,Mers,7/26/2024 8:33,129
-11.39076138,-1.383890152,1.733454704,-1.317771912,1.06210041,1.36357975,-0.460693359,0.559875488,-0.434020996,-0.534729004,11.60471723,2.173460335,-0.501277135,-1.37060761,2.888745754,Mers,7/26/2024 8:33,129
-15.30420303,-2.613349915,1.210305214,0.71587944,-0.540104866,-0.651961327,-0.398071289,0.621887207,-0.239135742,-0.630554199,15.57283105,1.108715568,0.501422508,-0.921793663,2.990482193,Mers,7/26/2024 8:33,129
-8.873181343,-1.733454704,-0.390266418,-0.282302856,1.131344795,1.056774139,-0.481323242,0.574523926,-0.354309082,-0.559265137,9.04933811,1.573660551,0.594672931,-1.251220845,2.753232428,Mers,7/26/2024 8:33,129
-9.738712311,0.208301544,-0.245412827,-2.786816597,-0.390963554,-0.251409531,-0.161376953,0.690673828,-0.08581543,-0.699645996,9.744030709,2.825315203,0.283131839,-0.350107214,3.134921821,Mers,7/26/2024 8:33,127
-6.8835392,-2.47208786,-0.670396805,0.705225945,-0.578455925,-0.512407303,-0.340454102,0.586608887,-0.107421875,-0.726928711,7.344641733,1.046191252,0.663984846,-0.589087904,-3.039436372,Mers,7/26/2024 8:33,129
-8.818113327,-1.388678551,1.654443741,-0.192818642,0.283368111,-0.02023983,-0.231994629,0.709228516,-0.223815918,-0.626953125,9.078806907,0.343345549,-1.81599141,-0.655705505,2.997869277,Mers,7/26/2024 8:33,128
-11.67568016,-1.278542519,-0.641665459,0.132096291,1.47117424,0.781927109,-0.277832031,0.65814209,-0.237548828,-0.65814209,11.76298911,1.671290842,0.374467156,-0.745565877,3.113220921,Mers,7/26/2024 8:33,128
-12.4466362,-2.397865295,0.993623734,1.451999664,-0.648765564,-0.235429764,-0.321899414,0.617858887,-0.20916748,-0.686218262,12.71439337,1.607677503,0.682499415,-0.754392224,-3.100549332,Mers,7/26/2024 8:33,129
-10.21277809,-1.777748108,2.328432083,0.470860481,0.120378494,0.11931324,-0.204162598,0.693969727,-0.217102051,-0.655456543,10.62463273,0.500436033,-2.101074514,-0.604033964,3.085036728,Mers,7/26/2024 8:33,130
-7.911880493,-1.474872589,1.747819901,-0.210927963,0.686050415,0.345155716,-0.154968262,0.752929688,-0.185791016,-0.611999512,8.235774189,0.796422153,-1.988780919,-0.478860824,2.934116953,Mers,7/26/2024 8:33,131
-8.201587677,-2.60018158,-0.91461277,-0.07563591,-0.422922134,-0.95450592,-0.22467041,0.562438965,0.048461914,-0.794311523,8.652369686,1.046740404,0.722433748,-0.176656474,-2.85819913,Mers,7/26/2024 8:33,130
-9.784203529,-2.152452469,0.059856415,0.1832304,1.656536102,1.69701767,-0.166809082,0.685424805,-0.073486328,-0.704956055,10.01834683,2.378561374,0.353330398,-0.338719295,-3.136574436,Mers,7/26/2024 8:33,131
-13.02245998,-1.081014633,0.925386429,0.512407303,1.042924881,0.384572029,-0.162414551,0.728820801,-0.12701416,-0.652954102,13.09997697,1.223989051,-1.293261487,-0.414367501,3.015916113,Mers,7/26/2024 8:33,131
-10.05715084,-1.417409897,-1.85556221,-2.255232811,-0.286564827,-1.166500092,0.137817383,0.535827637,0.265869141,-0.789428711,10.32465229,2.555174533,1.338349042,0.603420459,-2.676484407,Mers,7/26/2024 8:33,129
-12.00848389,-1.857956886,-0.459700584,0.28976059,1.488219261,0.968354225,0.090759277,0.674316406,0.186218262,-0.70880127,12.16005813,1.799018531,0.171711383,0.396708342,-3.061348768,Mers,7/26/2024 8:33,128
-13.53124332,-1.756199837,0.259778023,-0.026632309,-2.269082069,-0.54117012,-0.085693359,0.563598633,0.135437012,-0.81036377,13.64720734,2.332875439,0.84420432,0.123224787,-2.783926203,Mers,7/26/2024 8:33,128
-9.566324234,-2.020767212,2.211112022,0.536909103,0.483644485,0.003195763,0.033081055,0.690917969,0.091186523,-0.716430664,10.02432421,0.722629632,0.349348339,0.17729765,-3.097741044,Mers,7/26/2024 8:33,127
-7.907092094,-1.51078701,1.207911491,-0.683919907,-0.08309269,-0.366461754,0.084899902,0.713623047,0.19342041,-0.667907715,8.14024772,0.780349314,-0.520983953,0.389306632,3.10578145,Mers,7/26/2024 8:33,127
-9.583084106,-1.649654388,-0.271749496,0.259931564,2.336195946,2.487467766,-0.005859375,0.745117188,0.027587891,-0.666320801,9.727831638,3.422407311,-1.158721576,0.028036602,3.030791622,Mers,7/26/2024 8:33,127
-6.505244255,-1.47008419,-0.562654495,0.245018005,-1.554267883,-0.858629227,0.105895996,0.475097656,0.170410156,-0.856750488,6.692976201,1.792491736,1.610592941,0.403478453,-2.546978467,Mers,7/26/2024 8:33,129
-8.109408379,-2.333220482,2.017175674,0.420791626,0.857563972,0.089484215,-0.01385498,0.73223877,0.002502441,-0.680908203,8.676140834,0.959421171,-1.268915427,-0.016883244,3.068805007,Mers,7/26/2024 8:33,128
-14.36325359,-0.903838158,0.627299309,-1.036533356,0.924676895,0.840518951,-0.090270996,0.78515625,-0.036071777,-0.611633301,14.40532823,1.623545769,-1.346314634,-0.186966452,2.886064436,Mers,7/26/2024 8:33,128
-10.58628559,-1.958516121,1.082211494,1.233613014,-1.599010468,-0.013848305,0.000854492,0.608459473,0.056274414,-0.791564941,10.82018529,2.019610685,1.311657644,0.090252028,-2.878435682,Mers,7/26/2024 8:33,129
-9.153311729,-1.482055664,1.699934959,0.25886631,0.443162918,-0.015978813,0.126586914,0.744445801,0.210693359,-0.620788574,9.427055928,0.513478783,-0.899820266,0.466839529,2.981696614,Mers,7/26/2024 8:33,125
-7.422250748,-1.823239326,-1.194742203,1.63416481,-0.508146286,-1.401929855,0.003295898,0.561340332,0.152893066,-0.813354492,7.735723414,2.212264585,1.095411082,0.255172953,-2.756377335,Mers,7/26/2024 8:33,125
-11.29379368,-1.79450798,0.094573021,0.71587944,-1.633099556,-1.03759861,0.02734375,0.581054688,0.180664063,-0.79309082,11.4358637,2.063033787,1.000070241,0.323980456,-2.800875856,Mers,7/26/2024 8:33,124
-13.99932384,-1.552686691,1.230656624,0.167251587,-0.618937492,-0.160859108,0.106140137,0.67565918,0.171203613,-0.70916748,14.13882667,0.661008597,0.337392103,0.396566061,-3.071792319,Mers,7/26/2024 8:33,125
-8.626571655,-0.509980202,-2.420611382,-0.681789398,0.145945549,-0.35793972,-0.007446289,0.706420898,0.033691406,-0.70690918,8.97425082,0.78374596,-0.005697538,0.037121625,-3.139879976,Mers,7/26/2024 8:33,126
-8.696004868,0.334000587,1.595783234,-1.779045105,0.95024395,-0.370722771,0.14050293,0.742126465,0.24798584,-0.606628418,8.847518363,2.050707298,-0.849016183,0.534501813,2.973447969,Mers,7/26/2024 8:33,125
-8.098633766,0.061053276,-1.235445023,-0.322784424,0.958766937,0.513472557,0.322753906,0.530822754,0.374145508,-0.688537598,8.192552764,1.134494553,1.86401743,1.031123279,-2.705437185,Mers,7/26/2024 8:33,124
-7.429433823,-1.759791374,-1.313259125,0.448489189,-1.141998291,-1.178217888,0.251403809,0.378540039,0.344360352,-0.821533203,7.747128638,1.701029112,1.880434173,0.857394003,-2.22357389,Mers,7/26/2024 8:33,124
-13.03682518,-2.008795738,-0.022745132,0.956636429,2.228600502,2.050696373,0.22644043,0.677612305,0.276123047,-0.642883301,13.19070083,3.176030395,-0.70592115,0.723360564,3.113572334,Mers,7/26/2024 8:33,125
-11.2818222,-1.009186745,0.907429695,-0.308935165,-2.258428574,-0.405878067,0.309509277,0.490600586,0.329162598,-0.745117188,11.36315971,2.315313708,2.000240626,0.917723293,-2.586409327,Mers,7/26/2024 8:33,124
-8.36798954,-1.787325859,1.55148983,-0.084157944,0.633851051,0.330241203,0.349365234,0.645629883,0.393737793,-0.553222656,8.696258009,0.719658924,-0.867557025,1.090310786,2.96621848,Mers,7/26/2024 8:33,124
-8.154899597,-0.847572327,-1.678385735,-0.681789398,0.197079659,0.127835274,0.271057129,0.531677246,0.327331543,-0.732543945,8.368855654,0.721123452,1.789841967,0.875399151,-2.695679401,Mers,7/26/2024 8:33,125
-9.373584747,0.843981743,0.587794304,-1.189936638,0.745707512,-0.004261017,0.350830078,0.642700195,0.393737793,-0.555725098,9.429840844,1.404295928,-0.864504056,1.094233873,2.978064759,Mers,7/26/2024 8:33,124
-13.5096941,-1.867533684,1.529940605,1.681037903,-0.303608894,0.018109322,0.275268555,0.644104004,0.310302734,-0.642700195,13.72371069,1.708330981,-0.452492294,0.85331849,-3.113137847,Mers,7/26/2024 8:33,124
-11.76905727,-1.327625275,-0.493220329,1.430693626,2.115678787,1.259180069,0.271850586,0.653198242,0.310058594,-0.635070801,11.85396829,2.847545509,-0.651806252,0.846495626,3.139932493,Mers,7/26/2024 8:34,125
-10.31932354,-2.621730804,2.43138504,1.350795746,0.364331245,0.207732201,0.298034668,0.555786133,0.260803223,-0.730957031,10.92124278,1.41440414,2.105519138,0.793138759,-2.83967395,Mers,7/26/2024 8:34,125
-11.66730022,-2.545113564,-0.186753273,0.648765564,-1.87279129,-0.625329018,0.353637695,0.455444336,0.369262695,-0.728820801,11.94313084,2.078287842,2.091359532,1.036009387,-2.447613156,Mers,7/26/2024 8:34,125
-8.060325623,-1.8352108,-0.768561363,0.290825844,-1.50206852,-0.805363655,0.244140625,0.431274414,0.288574219,-0.819213867,8.3022608,1.72898818,1.887231037,0.752397761,-2.409132224,Mers,7/26/2024 8:34,125
-11.77983093,1.707117081,0.550683022,-0.55288887,0.904437065,0.036219597,0.351867676,0.469360352,0.395080566,-0.706970215,11.91561653,1.06066223,2.044224423,1.09499478,-2.461657281,Mers,7/26/2024 8:34,125
-7.671256065,-3.323252678,2.098581314,-0.752099037,0.329175949,0.819212914,0.431152344,0.417480469,0.500915527,-0.623596191,8.619525596,1.159792898,2.244783165,1.395835709,-1.878135319,Mers,7/26/2024 8:34,125
-8.430240631,-1.284527779,0.356746674,-0.945982933,-1.927122116,-1.025880814,0.317443848,0.312866211,0.332763672,-0.831054688,8.535000697,2.379309733,2.072168093,0.850673187,-2.044173301,Mers,7/26/2024 8:34,124
-8.093845367,-1.3204422,-1.602966309,-1.45093441,-0.741446495,-0.069243431,0.362670898,0.268493652,0.440612793,-0.776062012,8.356039817,1.630873453,2.180123647,1.072996736,-1.733213732,Mers,7/26/2024 8:34,125
-12.40114498,-1.737046242,-0.928977966,0.534778595,1.817396164,1.605401993,0.336303711,0.396728516,0.37713623,-0.766357422,12.55662082,2.483189989,2.065565474,1.006349862,-2.228235337,Mers,7/26/2024 8:34,125
-9.680051804,-2.217098236,2.373923302,1.529766083,1.138801575,0.793645859,0.340148926,0.538146973,0.379760742,-0.671203613,10.21050632,2.065654145,1.917921894,1.067285121,-2.753972847,Mers,7/26/2024 8:34,122
-14.3931818,-1.607754707,1.695145607,0.903370857,-0.664744377,-0.361135483,0.333312988,0.463745117,0.336608887,-0.748718262,14.58156631,1.178296579,2.069414174,0.94962099,-2.50460201,Mers,7/26/2024 8:34,124
-7.71076107,-0.471672058,1.606557846,-1.626708031,-0.567802429,0.66048336,0.43762207,0.364440918,0.504150391,-0.649230957,7.890458727,1.845214591,2.297076772,1.340482754,-1.661507755,Mers,7/26/2024 8:34,121
-6.405881882,-1.472478867,-1.13129425,0.164054871,-0.69137764,-0.854367256,0.299804688,0.485717773,0.620178223,-0.538085938,6.669583449,1.11124275,-0.71117179,1.28225263,-1.979497779,Mers,7/26/2024 8:34,121
-10.3935461,-3.091008186,2.150057793,1.497806549,1.796090126,2.400113106,0.591064453,0.275817871,0.619750977,-0.436401367,11.05454118,3.351105358,2.712240019,1.049095114,-0.294266198,Mers,7/26/2024 8:34,120
-7.404294014,-2.073441505,1.611346245,0.364331245,1.15691185,0.728662491,0.474487305,0.473266602,0.682678223,-0.29119873,7.856154673,1.414966894,-0.799031501,1.00976729,-0.266700411,Mers,7/26/2024 8:34,121
-12.62740421,-1.256993294,-0.027533531,0.090549469,-2.091176987,-0.940656662,0.138671875,0.555541992,0.539611816,-0.6171875,12.68984347,2.294788738,-0.436060608,0.961689629,-2.570817805,Mers,7/26/2024 8:34,120
-9.845256805,-2.709121704,-1.526350021,0.215189934,1.078080177,1.04931736,0.425537109,0.590209961,0.585388184,-0.357543945,10.3246388,1.519746853,-0.779345395,1.170425393,0.6588545,Mers,7/26/2024 8:34,120
-11.81095695,-1.57184124,1.024748802,1.209111214,-1.379559517,-1.342273712,0.519775391,0.305664063,0.579956055,-0.547729492,11.95907601,2.273066894,2.562640324,1.263224135,-0.794018925,Mers,7/26/2024 8:34,119
-15.31018925,-2.053090096,1.89027977,-0.338764191,0.787254333,1.126018524,0.360595703,0.69342041,0.540405273,-0.311462402,15.56246225,1.415078895,-0.804924842,0.99126735,1.758779541,Mers,7/26/2024 8:34,120
-8.247078896,-2.018373489,2.130904198,-0.671136856,-0.86715126,-0.122509003,0.174072266,0.665466309,0.515625,-0.510864258,8.753793153,1.103351459,-0.687446451,0.861019337,-3.034684926,Mers,7/26/2024 8:34,120
-9.330488205,-1.132491112,3.543525696,0.517733574,0.394159317,0,0.202575684,0.685913086,0.543334961,-0.439575195,10.04475588,0.650699332,-0.752744704,0.856526521,3.081278668,Mers,7/26/2024 8:34,120
-11.16689682,-2.111749649,-1.088197708,2.012345314,2.200902939,1.67784214,0.212402344,0.661437988,0.531433105,-0.484741211,11.41679664,3.42179217,-0.724363553,0.920983422,-3.058055614,Mers,7/26/2024 8:34,120
-7.609004974,-0.87390995,-0.164007187,-1.400864601,-1.757739067,-1.051447868,0.438110352,0.511108398,0.56237793,-0.480102539,7.66078153,2.48145338,-0.788001928,1.414701405,-1.549435258,Mers,7/26/2024 8:34,119
-10.86641502,2.588210106,-0.26336956,-1.68956089,0.69137764,0.061786652,0.217224121,0.667114258,0.578186035,-0.416503906,11.17350305,1.826591534,-0.757731317,0.881132724,-3.090575566,Mers,7/26/2024 8:34,120
-10.24749565,-1.460507393,2.140480995,-0.267389297,-0.071374893,0.703095436,0.534423828,0.369995117,0.623718262,-0.434082031,10.57004767,0.755602146,-1.617484184,1.213821395,-0.421538396,Mers,7/26/2024 8:34,120
-8.754665375,-1.485647202,1.722680092,1.057839394,1.040794373,0.446358681,0.435302734,0.588195801,0.573608398,-0.368103027,9.045382255,1.549681639,-0.779273437,1.20651614,0.818843967,Mers,7/26/2024 8:34,120
-8.970149994,-1.355158806,-2.170409203,-0.674332619,0.765948296,0.70416069,0.27923584,0.597595215,0.52166748,-0.54107666,9.327953817,1.239856262,-0.677507713,1.115803542,-2.791374633,Mers,7/26/2024 8:34,120
-14.7858429,-1.702328682,-1.234248161,-1.385951042,-2.654719353,-1.242136002,0.391113281,0.17755127,0.289916992,-0.855224609,14.93460551,3.242113043,2.205409908,0.687715501,-1.692101401,Mers,7/26/2024 8:34,121
-15.28385258,-0.465685844,1.231853485,-1.314576149,-1.49034977,0.282302856,0.419433594,0.405395508,0.287475586,-0.75970459,15.34048487,2.007223902,2.244800584,0.889673232,-2.435551841,Mers,7/26/2024 8:34,121
-7.324086189,-2.621730804,1.774157524,0.432510376,0.896979332,0.863955498,0.41204834,0.5234375,0.320739746,-0.673339844,7.978931372,1.318353613,2.297911573,1.041765881,-2.891545812,Mers,7/26/2024 8:34,121
-7.660481453,-1.44973278,-0.790110588,-0.519864082,-1.391277313,-1.271964073,0.341186523,0.422668457,0.548400879,-0.635803223,7.836387941,1.95545489,0.945923409,1.401880765,-1.949751086,Mers,7/26/2024 8:34,121
-13.96819782,-1.641274452,0.253792763,-0.370722771,-2.787881851,0.281237602,0.413757324,0.317810059,0.311828613,-0.794067383,14.06658249,2.826449217,2.220901091,0.860576152,-2.067084472,Mers,7/26/2024 8:34,121
-9.304150581,-1.648457527,-0.834403992,0.467664719,1.014162064,0.39735508,0.428527832,0.378540039,0.352905273,-0.740600586,9.485824175,1.185380125,2.240386691,1.010605232,-2.211865609,Mers,7/26/2024 8:34,121
-12.02644157,-2.613349915,2.238646507,0.807494164,1.507394791,1.41471386,0.431640625,0.399414063,0.389099121,-0.70904541,12.50905403,2.219392076,2.243550468,1.111996266,-2.212818029,Mers,7/26/2024 8:34,121
-7.152894974,-1.795705795,-0.560259819,0.67965889,-1.102581978,-1.041859627,0.400146484,0.244628906,0.301086426,-0.83026123,7.396104169,1.662255909,2.207753794,0.769443434,-1.857761961,Mers,7/26/2024 8:34,121
-10.56234264,-0.367520332,1.817254066,-2.379873276,0.926807404,0.275911331,0.461547852,0.452697754,0.42590332,-0.632995605,10.72383167,2.568831609,2.289078323,1.276730104,-2.402099357,Mers,7/26/2024 8:34,121
-10.52642822,-1.976472855,-1.453324318,-0.344090462,1.3273592,1.178217888,0.384399414,0.493286133,0.379272461,-0.681945801,10.80852847,1.807893272,2.157789397,1.111860269,-2.622517426,Mers,7/26/2024 8:34,122
-9.717163086,-1.289316177,2.223083496,0.673267365,0.492166519,0.087353706,0.326904297,0.613708496,0.390563965,-0.603271484,10.0512534,0.838538906,-0.601856671,1.060254955,-3.07376735,Mers,7/26/2024 8:34,120
-11.75469112,-1.325230598,0.725464821,0.148076057,1.430693626,1.14945507,0.447387695,0.4765625,0.461181641,-0.600036621,11.85138383,1.841210941,2.250655409,1.36979996,-2.401421501,Mers,7/26/2024 8:34,121
-7.502459526,0.612934113,2.779752731,-4.190877914,0.24608326,0.482579231,0.551086426,0.406616211,0.524902344,-0.505432129,8.024313828,4.225742228,2.404145601,1.364354056,-0.354345615,Mers,7/26/2024 8:34,121
-13.17928505,-0.962497711,1.670005798,0.054329872,-1.088732719,-0.100137711,0.385131836,0.517944336,0.327819824,-0.689880371,13.31949232,1.094677226,2.228066572,1.018394442,-2.795205626,Mers,7/26/2024 8:34,120
-6.956564903,-2.08660984,-0.752999306,0.046872139,-1.227221489,-1.013096809,0.361938477,0.299072266,0.372314453,-0.800598145,7.301694586,1.592053619,2.151447834,0.948668103,-1.929068252,Mers,7/26/2024 8:34,122
-9.692023277,-1.695145607,1.395861626,0.775535583,0.393094063,0.044741631,0.320007324,0.652648926,0.357543945,-0.586364746,9.937668917,0.870620581,-0.866414424,0.991790746,3.036349341,Mers,7/26/2024 8:34,121
-13.82573891,-2.209915161,-2.67679882,-1.384885788,-2.00382328,-1.882379532,0.406066895,0.345275879,0.420043945,-0.73449707,14.25482491,3.078403659,2.214182057,1.113959511,-1.937933553,Mers,7/26/2024 8:34,122
-8.335666656,0.077813148,1.461704254,-0.581651688,0.955571175,0.11505127,0.284606934,0.663330078,0.34588623,-0.599487305,8.463212913,1.124576254,-0.792367175,0.914545716,3.071598422,Mers,7/26/2024 8:34,121
-15.61905098,-0.537513733,0.549485207,-0.311066628,-1.306053162,-0.480448723,0.372253418,0.515563965,0.357849121,-0.683776855,15.6379541,1.425962231,2.154124762,1.061768708,-2.730506303,Mers,7/26/2024 8:34,121
-7.583864212,-1.353961945,-0.651242256,-0.740381241,0.034089088,0.23436451,0.336242676,0.415710449,0.392211914,-0.748535156,7.731256419,0.777337232,2.043473413,1.048604458,-2.267871607,Mers,7/26/2024 8:34,123
-11.93067074,-2.844397545,1.011580467,1.959080696,-1.171826363,-0.31426239,0.190429688,0.713378906,0.374267578,-0.561035156,12.30669723,2.304329631,-0.74927792,0.763773335,3.005153946,Mers,7/26/2024 8:34,123
-7.642524719,-1.199531555,-0.227456093,-0.036219597,-1.391277313,-1.186739922,0.248657227,0.624572754,0.444458008,-0.592041016,7.739431265,1.82902052,-0.591780702,0.991565265,-2.958312897,Mers,7/26/2024 8:34,123
-12.50050735,-2.272166252,0.00598526,1.879183769,2.552451134,1.350795746,0.289001465,0.642700195,0.305419922,-0.640380859,12.70533192,3.445429955,-0.514569678,0.867404535,-3.131172648,Mers,7/26/2024 8:34,122
-10.88916111,-1.867533684,1.984852791,0.674332619,0.030893326,0.002130508,0.259277344,0.759643555,0.444213867,-0.398071289,11.22502349,0.675043271,-0.864176131,0.84440235,2.485227314,Mers,7/26/2024 8:34,124
-7.671256065,-1.576629639,-0.699128151,0.675397873,-1.475436211,-1.825918198,0.51159668,0.448730469,0.517211914,-0.519042969,7.862741939,2.442754913,2.392087142,1.481867659,-0.861340917,Mers,7/26/2024 8:34,126
-8.279401779,-1.678385735,-2.4661026,0.235429764,-0.044741631,-0.138487816,0.367431641,0.659973145,0.473388672,-0.453125,8.800405362,0.276781254,-0.830297173,1.153032588,2.627958155,Mers,7/26/2024 8:34,126
-12.10784626,-1.356356621,-1.088197708,1.376362801,2.754857063,1.918599129,0.389282227,0.673522949,0.532470703,-0.333618164,12.23208153,3.62831016,-0.803422128,1.075156988,1.734919161,Mers,7/26/2024 8:34,124
-12.90873146,-0.347168922,-0.845178604,-1.064230919,0.914024353,0.305739403,0.305419922,0.744140625,0.489624023,-0.336486816,12.94102782,1.435794048,-0.842802358,0.901171842,2.171970745,Mers,7/26/2024 8:34,124
-13.7132082,-0.232244492,-0.29808712,-1.000313759,-2.544994354,-2.279734612,0.581115723,0.263366699,0.531982422,-0.55670166,13.71841363,3.560170471,2.463828986,1.116121892,-0.519376384,Mers,7/26/2024 8:34,126
-8.165673256,-2.139284134,-1.234248161,-0.941721916,-0.971549988,-0.985399246,0.534423828,0.304199219,0.533935547,-0.58026123,8.531009603,1.673846236,2.449630957,1.236943419,-0.841523449,Mers,7/26/2024 8:34,126
-7.679636002,-2.385893822,2.190760612,0.430379868,0.756360054,0.901240349,0.601989746,0.429443359,0.643432617,-0.197875977,8.33479037,1.252813445,-0.559413314,0.88147952,0.15368991,Mers,7/26/2024 8:34,126
-14.99534225,-2.812075615,1.078619957,1.474370956,-0.08309269,-0.416530609,0.592102051,0.279663086,0.557861328,-0.509887695,15.29481871,1.534331079,2.493022034,1.119933407,-0.362510864,Mers,7/26/2024 8:34,126
-11.76307106,-0.031125069,0.439349174,-0.959832191,0.696703911,0.224777222,0.582885742,0.450317383,0.606506348,-0.299316406,11.77131417,1.207144968,-0.621384277,1.093068261,0.192169762,Mers,7/26/2024 8:34,126
-9.905114174,-1.161222458,0.708704948,0.620002747,1.643753052,1.015227318,0.472045898,0.523254395,0.499328613,-0.50402832,9.998099174,2.029042634,-0.780510376,1.498002586,-3.021807465,Mers,7/26/2024 8:35,126
-14.8205595,-1.98365593,1.468887329,0.742511749,-1.022685051,-0.367527008,0.539855957,0.424621582,0.525878906,-0.501708984,15.02469649,1.316162799,2.404703416,1.404142275,-0.379478823,Mers,7/26/2024 8:35,127
-7.764632225,-0.36512661,4.206740379,-1.230417252,0.757425308,0.307869911,0.446105957,0.536621094,0.566894531,-0.437744141,8.838523386,1.477296041,-0.78725061,1.347123063,-0.625299183,Mers,7/26/2024 8:35,127
-10.90232944,-1.532335281,-0.951724052,-0.310001373,-1.968667984,-1.088732719,0.551818848,0.303955078,0.526489258,-0.570922852,11.05054828,2.270923472,2.442153565,1.212871333,-0.722574483,Mers,7/26/2024 8:35,127
-9.741106033,-2.11294651,1.462901115,1.643753052,0.968354225,0.957701683,0.413635254,0.615905762,0.502746582,-0.44354248,10.07441161,2.134672461,-0.808293598,1.271348779,2.482615208,Mers,7/26/2024 8:35,127
-13.68926525,-0.471672058,1.270162582,-0.689246178,-0.008522034,-0.051134109,0.484130859,0.449279785,0.536010742,-0.525817871,13.75615392,0.691192894,2.473834117,1.519967059,-1.221154341,Mers,7/26/2024 8:35,127
-10.99450874,-2.354768753,-0.854755402,-0.23862648,-2.534340858,-1.128149033,0.325805664,0.376159668,0.366516113,-0.786132813,11.27629217,2.784339495,2.05623028,0.963809751,-2.180620702,Mers,7/26/2024 8:35,127
-11.45301247,-2.443356514,0.205906868,0.134226799,1.678907394,1.222960472,0.360595703,0.541015625,0.414672852,-0.636657715,11.71255238,2.081436808,1.717728695,1.163474709,-2.764090286,Mers,7/26/2024 8:35,127
-15.22279835,-2.485256195,2.566661835,1.762001038,-1.206980705,-0.161924362,0.346923828,0.591674805,0.321777344,-0.652709961,15.63642673,2.141884586,2.23156472,0.980160446,-3.034303095,Mers,7/26/2024 8:35,127
-7.296551704,-1.950136185,-1.137280464,-1.249592781,-1.578769684,-0.928938866,0.403808594,0.338806152,0.463012695,-0.712585449,7.637807589,2.21741364,2.224536797,1.204046941,-1.811194928,Mers,7/26/2024 8:35,127
-9.350839615,-2.646870613,2.372725487,0.418661118,0.63598156,0.931069374,0.336730957,0.751464844,0.518249512,-0.230895996,10.00369691,1.202763425,-0.818852702,0.841144325,1.565179287,Mers,7/26/2024 8:35,127
-8.719947815,-1.911828041,-1.164813995,0.307869911,1.211241722,0.626394272,0.213500977,0.653564453,0.510375977,-0.516479492,9.002742249,1.39794856,-0.698824085,0.937820515,-3.023007878,Mers,7/26/2024 8:35,126
-12.83331203,-2.10097599,-0.713493347,1.028011322,-2.280799866,-0.144880295,0.262817383,0.581970215,0.461791992,-0.615661621,13.02371186,2.505962012,-0.452135872,1.064443138,-2.770145237,Mers,7/26/2024 8:35,126
-7.137331963,-1.969290733,-1.040311813,0.180034637,-0.989660263,-0.752099037,0.281982422,0.51940918,0.530578613,-0.60760498,7.476754791,1.25598283,-0.457280046,1.215929966,-2.404421316,Mers,7/26/2024 8:35,126
-11.14175701,-1.158828735,0.974469185,0.73611927,1.563855171,0.852236748,0.213562012,0.741394043,0.522460938,-0.363037109,11.24416398,1.927127928,-0.805653257,0.76982922,2.597944845,Mers,7/26/2024 8:35,127
-7.866389275,-1.982459068,2.856369019,-1.495676041,0.664744377,0.678593636,0.318969727,0.737182617,0.550354004,-0.227844238,8.600527202,1.771841198,-0.804960665,0.805342301,1.518615181,Mers,7/26/2024 8:35,127
-12.41191959,-3.130514145,1.650852203,2.323411942,1.473304749,1.212306976,0.367553711,0.364501953,0.42767334,-0.741027832,12.90663317,3.006419488,2.134584066,1.123879251,-2.023697808,Mers,7/26/2024 8:35,124
-7.905894279,1.497618675,1.575431824,-3.31094265,-0.116116524,-0.040480614,0.454406738,0.334411621,0.538330078,-0.625976563,8.19926896,3.313225462,2.386041277,1.360082263,-1.378923711,Mers,7/26/2024 8:35,123
-8.927052498,-1.567051888,-1.82922554,-1.706604958,-0.45275116,0.132096291,0.38684082,0.307983398,0.441223145,-0.748840332,9.246295691,1.770574349,2.201841027,1.11769196,-1.801307523,Mers,7/26/2024 8:35,126
-8.056734085,-2.401456833,2.037527084,0.308935165,0.882065773,1.025880814,0.319580078,0.740844727,0.499145508,-0.316101074,8.650403208,1.387772463,-0.836921234,0.909308741,2.030183598,Mers,7/26/2024 8:35,124
-13.18527031,-1.479660988,1.567051888,0.768078804,-0.553954124,0.247148514,0.17791748,0.754699707,0.451660156,-0.441345215,13.36025454,0.978719883,-0.806338388,0.730476503,2.760651241,Mers,7/26/2024 8:35,125
-12.96020889,-2.555888176,1.033128738,1.901554108,-0.808560371,-0.291891098,0.347351074,0.416870117,0.377868652,-0.750183105,13.25016731,2.08683452,2.082658878,1.028531247,-2.294048831,Mers,7/26/2024 8:35,129
-9.93983078,-2.698347092,2.019570351,-3.440908432,-0.443162918,-0.712682724,0.504699707,0.307617188,0.581970215,-0.55859375,10.49571233,3.54177369,2.56659464,1.289435437,-0.890761423,Mers,7/26/2024 8:35,128
-11.20759964,2.940169334,1.489238739,0.129965782,0.56034565,0.663679123,0.441040039,0.479064941,0.565124512,-0.506591797,11.6821538,0.878264385,-0.801667995,1.472252903,-1.484797329,Mers,7/26/2024 8:35,128
-7.346831322,-1.284527779,0.373506546,-1.00564003,-1.583030701,-1.098320961,0.342285156,0.241271973,0.419128418,-0.805603027,7.467626747,2.173386069,2.151503535,0.998149794,-1.726331553,Mers,7/26/2024 8:35,128
-11.35005856,-2.632504463,1.871125221,1.522309303,0.576325417,0.976877213,0.433959961,0.47845459,0.467773438,-0.60333252,11.80063637,1.898385021,2.199590524,1.368990036,-2.373108287,Mers,7/26/2024 8:35,129
-7.691607475,-1.656837463,-1.228262901,1.126018524,1.678907394,1.666124344,0.43536377,0.415893555,0.474182129,-0.64239502,7.963326295,2.619659918,2.249813839,1.33086564,-1.986626912,Mers,7/26/2024 8:35,127
-13.31096935,-2.007598877,1.197136879,0.824539185,-0.148076057,-0.225842476,0.348388672,0.409790039,0.390441895,-0.747192383,13.51464002,0.867638295,2.080109527,1.05318348,-2.250073167,Mers,7/26/2024 8:35,127
-7.218737602,-3.174807549,1.919011116,0.45275116,0.739315987,1.212306976,0.331848145,0.568359375,0.373046875,-0.653930664,8.116167766,1.490389193,1.701801175,1.045372806,-2.878393585,Mers,7/26/2024 8:35,128
-12.28502274,-2.178789139,1.17798233,0.769144058,-1.823787689,-0.994986534,0.389282227,0.334411621,0.40447998,-0.756958008,12.5322204,2.215351511,2.188102959,1.060725073,-1.95509695,Mers,7/26/2024 8:35,126
-7.205569267,-0.996017456,0.450122833,-0.949178696,-0.577390671,-0.220516205,0.433349609,0.305847168,0.492858887,-0.689758301,7.287996281,1.13267276,2.306892446,1.237547272,-1.558817632,Mers,7/26/2024 8:35,127
-11.50688362,-3.080233574,2.591801643,1.717258453,1.487154007,0.893783569,0.370849609,0.392883301,0.47479248,-0.694763184,12.19071964,2.44119903,2.104988949,1.256900555,-2.006475406,Mers,7/26/2024 8:35,129
-9.622589111,-1.650852203,-1.452127457,-0.474056244,0.402681351,0.201340675,0.400939941,0.380065918,0.452148438,-0.700256348,9.870572848,0.653773401,2.195316536,1.216834497,-1.98163489,Mers,7/26/2024 8:35,129
-7.817306519,0.254989624,1.438958168,-2.525818825,-0.117181778,-0.100137711,0.421875,0.397094727,0.514465332,-0.632141113,7.952729187,2.530517707,2.247733182,1.400166707,-1.774764707,Mers,7/26/2024 8:35,129
-7.43901062,-1.098971367,-0.214286804,-0.102268219,-1.487154007,-1.08127594,0.420898438,0.254150391,0.402709961,-0.772094727,7.522801068,1.841532918,2.254485561,0.989594616,-1.673904427,Mers,7/26/2024 8:35,130
-11.98334408,-1.881899834,0.584202766,-0.010652542,-2.208359718,-0.85543251,0.414245605,0.335449219,0.455200195,-0.713195801,12.14427335,2.368275934,2.240539663,1.186894933,-1.8013899,Mers,7/26/2024 8:35,130
-10.83768368,-1.543109894,2.315262794,0.423987389,-0.653026581,-0.006391525,0.361877441,0.546813965,0.426025391,-0.623352051,11.18914731,0.778620494,1.2089594,1.186031902,-2.782553497,Mers,7/26/2024 8:35,130
-12.05517292,0.515965462,-0.630890846,-1.071688652,0.743577003,0.352612495,0.366333008,0.577453613,0.46295166,-0.563964844,12.08269166,1.35120646,-0.666551379,1.238382975,-2.937019076,Mers,7/26/2024 8:35,130
-8.770227432,-1.867533684,2.104566574,-0.590173721,0.700964928,0.116116524,0.328674316,0.620605469,0.468505859,-0.536071777,9.210525052,0.923655725,-0.740197265,1.14391085,-3.103164096,Mers,7/26/2024 8:35,130
-12.3149519,-1.415016174,-1.138477325,0.058590889,1.411518097,1.225090981,0.374572754,0.523620605,0.452392578,-0.617126465,12.44815013,1.869936935,1.306667756,1.255275499,-2.633883296,Mers,7/26/2024 8:35,130
-8.153701782,-1.594586372,-1.483252525,-0.427183151,-0.46553421,0.49749279,0.441650391,0.417480469,0.442565918,-0.659362793,8.439525846,0.804180714,2.257484681,1.260961106,-2.119267524,Mers,7/26/2024 8:35,130
-7.332466125,-1.680780411,-1.109745979,-0.439967155,-1.351861,-1.424301147,0.378540039,0.346923828,0.418884277,-0.748901367,7.604052762,2.012394846,2.165712055,1.097466102,-1.975575202,Mers,7/26/2024 8:35,130
-11.20161343,0.632087708,2.369133949,-1.455195427,-0.095876694,-0.077766418,0.492675781,0.284667969,0.493469238,-0.657836914,11.46684237,1.460422434,2.378952128,1.19371314,-1.26391806,Mers,7/26/2024 8:35,129
-15.19765854,-1.784931183,1.590994835,0.568867683,-1.508460045,-0.271650314,0.428405762,0.313720703,0.316101074,-0.786193848,15.38460493,1.634887165,2.238044077,0.87233567,-2.042540125,Mers,7/26/2024 8:35,130
-6.660871506,-1.2330513,2.438568115,-1.195262909,-0.25886631,0.251409531,0.501098633,0.325195313,0.472900391,-0.647705078,7.199599932,1.248547933,2.35668047,1.218288475,-1.388843393,Mers,7/26/2024 8:35,129
-10.12299347,-2.788132668,1.860350609,1.550006866,0.692442894,0.694573402,0.441223145,0.478027344,0.385131836,-0.654541016,10.66346965,1.834238441,2.275319939,1.183682836,-2.648886742,Mers,7/26/2024 8:35,130
-10.34206867,-1.686765671,-0.763772964,-0.602957726,1.240005493,0.904437065,0.415588379,0.392211914,0.373352051,-0.730834961,10.50651759,1.64899304,2.22110214,1.058691181,-2.219250254,Mers,7/26/2024 8:35,129
-14.46979904,-3.275367737,2.5534935,2.173205376,-0.443162918,-0.20240593,0.34552002,0.504516602,0.311157227,-0.727539063,15.05401764,2.227146861,2.136584423,0.929630936,-2.68922856,Mers,7/26/2024 8:35,129
-7.47372818,-1.959712982,-0.594976425,-1.070623398,-1.291139603,-0.223711967,0.434387207,0.307434082,0.393066406,-0.74987793,7.749263502,1.692135627,2.255440313,1.028633153,-1.839891481,Mers,7/26/2024 8:35,129
-8.749876022,-1.455718994,0.389069557,-0.191753387,-1.462652206,-1.629903793,0.318115234,0.362915039,0.339782715,-0.807250977,8.878672384,2.198341923,2.056551556,0.893831233,-2.17622361,Mers,7/26/2024 8:35,129
-9.804553986,-2.156044006,1.648457527,0.733988762,1.268768311,1.089797974,0.389038086,0.573974609,0.375427246,-0.61505127,10.17325989,1.826519136,2.247729567,1.139465054,-3.048928233,Mers,7/26/2024 8:35,129
-10.60424232,-1.832817078,2.984462738,0.370722771,0.399485588,0.040480614,0.431030273,0.384155273,0.482849121,-0.65838623,11.16764037,0.546500492,2.260038229,1.313052472,-1.833465779,Mers,7/26/2024 8:35,129
-9.232322693,-2.522367477,0.186753273,0.264193535,1.089797974,0.873542786,0.417297363,0.441223145,0.42956543,-0.668334961,9.572512564,1.421455186,2.20771368,1.229823217,-2.293198214,Mers,7/26/2024 8:35,129
-10.5383997,-1.793311119,-0.403434753,-0.203471184,-1.667189598,-1.100451469,0.413635254,0.359802246,0.423706055,-0.721069336,10.69750404,2.007962926,2.22277892,1.140151316,-1.970153801,Mers,7/26/2024 8:35,129
-6.022797585,-1.59817791,2.484059334,-1.486088753,-0.184295654,0.077766418,0.446899414,0.432067871,0.474853516,-0.62298584,6.708115544,1.499490675,2.265871468,1.359862342,-2.035582739,Mers,7/26/2024 8:35,129
-7.278594971,-1.485647202,-0.308860779,-1.042924881,-1.235743523,-0.52838707,0.427185059,0.328063965,0.449951172,-0.712341309,7.435084891,1.701160562,2.260616632,1.171476524,-1.765917907,Mers,7/26/2024 8:35,129
-9.109017372,-2.024358749,2.051893234,1.033337593,0.882065773,0.618937492,0.43145752,0.546386719,0.451599121,-0.557983398,9.554187128,1.492953525,-0.39188199,1.34877772,-3.00353804,Mers,7/26/2024 8:35,129
-12.62860107,0.723070145,1.235445023,-1.070623398,-0.108659744,0.499624252,0.510803223,0.43536377,0.530395508,-0.517822266,12.70947363,1.186450923,2.427036244,1.461853907,-0.827214546,Mers,7/26/2024 8:35,129
-9.222745895,-2.004007339,-0.620116234,-1.619251251,-0.325980186,-0.31426239,0.531738281,0.328979492,0.563415527,-0.540039063,9.458310177,1.681368058,2.510911632,1.28132447,-0.72983555,Mers,7/26/2024 8:35,129
-13.20083332,-0.821235657,1.679583549,0.208797455,-0.934265137,-0.745707512,0.380615234,0.477355957,0.405883789,-0.680114746,13.33257024,1.213477407,2.115839732,1.156681857,-2.499336577,Mers,7/26/2024 8:35,129
-6.994873047,-1.486844063,-0.329212189,-0.708421707,-1.121757507,-0.829865456,0.489013672,0.46295166,0.465576172,-0.57421875,7.158724389,1.5648891,2.328975579,1.41229232,-2.25815353,Mers,7/26/2024 8:36,129
-12.1700983,-0.146050453,1.570643425,-0.354743004,-2.041108131,-1.052513123,0.530700684,0.236755371,0.500854492,-0.641418457,12.27190059,2.323735974,2.425326513,1.105764081,-0.958609596,Mers,7/26/2024 8:36,129
-13.49652576,0.228652954,0.345972061,-2.735682487,-0.135292053,0.12677002,0.686157227,0.137451172,0.674926758,-0.234191895,13.50289548,2.741957922,2.78140387,0.529093481,-0.02406495,Mers,7/26/2024 8:36,129
-12.39875126,-1.765777588,2.017175674,0.455946922,0.523059845,0.523059845,0.543151855,0.33013916,0.502868652,-0.585754395,12.68526708,0.868948099,2.404407983,1.246096214,-0.877498523,Mers,7/26/2024 8:36,129
-13.36962986,-1.990839005,0.250201225,0.71161747,1.970798492,3.094687462,0.67565918,0.167541504,0.678771973,-0.233825684,13.51935809,3.737316766,2.893799617,0.574994949,-0.036712782,Mers,7/26/2024 8:36,129
-7.646116257,-1.149250984,1.243824959,-1.234678268,0.131031036,0.658352852,0.532043457,0.446716309,0.524353027,-0.492370605,7.831409335,1.405356907,2.398013429,1.441842828,-0.286262724,Mers,7/26/2024 8:36,129
-13.87242699,-2.746232986,1.434169769,1.65334034,0.418661118,0.144880295,0.657714844,0.113525391,0.734924316,-0.120056152,14.21417845,1.711666355,-1.486661295,0.331856758,-0.115562106,Mers,7/26/2024 8:36,127
-7.508444786,-1.134885788,0.112530708,-0.224777222,-1.329489708,-1.145194054,0.78692627,-0.063171387,0.57635498,-0.211181641,7.594562003,1.769049774,2.461608308,0.144511191,0.25802786,Mers,7/26/2024 8:36,128
-6.56510067,-3.202342033,1.614937782,0.042611122,0.684985161,1.756673813,0.669006348,0.022460938,0.740844727,0.055603027,7.480879985,1.885980717,-0.74197884,-0.052357316,-0.104159471,Mers,7/26/2024 8:36,127
